sender	sender_type	sender_id	timestamp	blockId	calibrationTrialset	color	congruency	correct	correctResponse	duration	ended_on	keypress_time	personalDeadline	reaction_time	response	response_action	testTrialset	time_commit	time_end	time_render	time_run	time_show	time_switch	word
inform	html.Screen	0	2021-11-27T13:45:58Z	NA				TRUE	continue	167702	response	NA	NA	NA	continue	click(0) button#submitInform		167876	167874	172	163	179	167896	
consent	html.Screen	1	2021-11-27T13:46:27Z	NA				TRUE	continue	29379	response	NA	NA	NA	continue	click(0) button#submitConsent		197260	197258	167879	167876	167896	197292	
instructions	html.Screen	2	2021-11-27T13:48:24Z	NA				NA		116810	response	NA	NA	NA	continue	keypress(Space)		314089	314086	197276	197260	197292	314126	
startPracticeScreen	html.Screen	3	2021-11-27T13:50:22Z	NA				NA		117974.00000000006	response	NA	NA	NA	continue	keypress(Space)		432087	432085.00000000006	314111	314089	314126	432124	
	flow.Loop	4	2021-11-27T13:50:25Z	NA				NA		2995	completion	NA	NA	NA				435119	435119	432107	432087	432124	435134	
StroopPracticeTrial	flow.Sequence	5_0_0	2021-11-27T13:50:57Z	NA		green	con	FALSE	c	32342	response	NA	NA	NA	x	keypress(x)		467463	467461	435119	435120	435134	467497	ZÖLD
StroopPracticeTrial	flow.Sequence	5_1_0	2021-11-27T13:51:02Z	NA		blue	con	TRUE	n	4288	response	NA	NA	NA	n	keypress(n)		472776	472774	468486	468487	468503	472814	KÉK
StroopPracticeTrial	flow.Sequence	5_2_0	2021-11-27T13:51:05Z	NA		red	inc	TRUE	x	1432	response	NA	NA	NA	x	keypress(x)		475234.00000000006	475233	473801	473802	473818	475261	ZÖLD
StroopPracticeTrial	flow.Sequence	5_3_0	2021-11-27T13:51:08Z	NA		yellow	con	TRUE	m	1822	response	NA	NA	NA	m	keypress(m)		478071	478070	476248	476248	476264	478105	SÁRGA
StroopPracticeTrial	flow.Sequence	5_4_0	2021-11-27T13:51:10Z	NA		green	inc	FALSE	c	1181	response	NA	NA	NA	x	keypress(x)		480274	480273	479092	479093	479109	480316	PIROS
StroopPracticeTrial	flow.Sequence	5_5_0	2021-11-27T13:51:15Z	NA		yellow	inc	TRUE	m	4375	response	NA	NA	NA	m	keypress(m)		485677	485676	481301	481302	481319	485709	KÉK
StroopPracticeTrial	flow.Sequence	5_6_0	2021-11-27T13:51:18Z	NA		red	con	TRUE	x	1409	response	NA	NA	NA	x	keypress(x)		488108	488106	486697	486697	486713	488137	PIROS
StroopPracticeTrial	flow.Sequence	5_7_0	2021-11-27T13:51:22Z	NA		blue	inc	TRUE	n	3293	response	NA	NA	NA	n	keypress(n)		492418	492416	489123	489124	489140	492447	SÁRGA
	flow.Loop	5	2021-11-27T13:51:23Z	NA				NA		58300	completion	NA	NA	NA				493434	493434	435119	435119	435134	493451	
endPracticeScreen	html.Screen	6	2021-11-27T13:51:47Z	NA				NA		23776.00000000006	response	NA	NA	NA	continue	keypress(Space)		517212	517210.00000000006	493434	493434	493451	517254	
	flow.Loop	7_0_0	2021-11-27T13:51:50Z	1	"[{""word"":""PIROS"",""color"":""red"",""congruency"":""con"",""correctResponse"":""x""},{""word"":""KÉK"",""color"":""blue"",""congruency"":""con"",""correctResponse"":""n""},{""word"":""ZÖLD"",""color"":""green"",""congruency"":""con"",""correctResponse"":""c""},{""word"":""SÁRGA"",""color"":""yellow"",""congruency"":""con"",""correctResponse"":""m""}]"			NA		2999	completion	NA	NA	NA			"[{""word"":""KÉK"",""color"":""blue"",""congruency"":""con"",""correctResponse"":""n""},{""word"":""PIROS"",""color"":""red"",""congruency"":""con"",""correctResponse"":""x""},{""word"":""KÉK"",""color"":""blue"",""congruency"":""con"",""correctResponse"":""n""},{""word"":""PIROS"",""color"":""green"",""congruency"":""inc"",""correctResponse"":""c""},{""word"":""SÁRGA"",""color"":""yellow"",""congruency"":""con"",""correctResponse"":""m""},{""word"":""ZÖLD"",""color"":""green"",""congruency"":""con"",""correctResponse"":""c""},{""word"":""SÁRGA"",""color"":""blue"",""congruency"":""inc"",""correctResponse"":""n""},{""word"":""ZÖLD"",""color"":""red"",""congruency"":""inc"",""correctResponse"":""x""},{""word"":""KÉK"",""color"":""yellow"",""congruency"":""inc"",""correctResponse"":""m""}]"	520253.00000000006	520253	517237	517212	517254	520269	
1_StroopCalibrationTrial	flow.Sequence	7_0_1_0	2021-11-27T13:51:51Z	1	"[{""word"":""PIROS"",""color"":""red"",""congruency"":""con"",""correctResponse"":""x""},{""word"":""KÉK"",""color"":""blue"",""congruency"":""con"",""correctResponse"":""n""},{""word"":""ZÖLD"",""color"":""green"",""congruency"":""con"",""correctResponse"":""c""},{""word"":""SÁRGA"",""color"":""yellow"",""congruency"":""con"",""correctResponse"":""m""}]"	red	con	TRUE	x	675	response	NA	NA	NA	x	keypress(x)	"[{""word"":""KÉK"",""color"":""blue"",""congruency"":""con"",""correctResponse"":""n""},{""word"":""PIROS"",""color"":""red"",""congruency"":""con"",""correctResponse"":""x""},{""word"":""KÉK"",""color"":""blue"",""congruency"":""con"",""correctResponse"":""n""},{""word"":""PIROS"",""color"":""green"",""congruency"":""inc"",""correctResponse"":""c""},{""word"":""SÁRGA"",""color"":""yellow"",""congruency"":""con"",""correctResponse"":""m""},{""word"":""ZÖLD"",""color"":""green"",""congruency"":""con"",""correctResponse"":""c""},{""word"":""SÁRGA"",""color"":""blue"",""congruency"":""inc"",""correctResponse"":""n""},{""word"":""ZÖLD"",""color"":""red"",""congruency"":""inc"",""correctResponse"":""x""},{""word"":""KÉK"",""color"":""yellow"",""congruency"":""inc"",""correctResponse"":""m""}]"	520930.00000000006	520928	520253	520253.00000000006	520269	520961	PIROS
1_StroopCalibrationTrial	flow.Sequence	7_0_1_1	2021-11-27T13:51:54Z	1	"[{""word"":""PIROS"",""color"":""red"",""congruency"":""con"",""correctResponse"":""x""},{""word"":""KÉK"",""color"":""blue"",""congruency"":""con"",""correctResponse"":""n""},{""word"":""ZÖLD"",""color"":""green"",""congruency"":""con"",""correctResponse"":""c""},{""word"":""SÁRGA"",""color"":""yellow"",""congruency"":""con"",""correctResponse"":""m""}]"	blue	con	TRUE	n	3254	response	NA	NA	NA	n	keypress(n)	"[{""word"":""KÉK"",""color"":""blue"",""congruency"":""con"",""correctResponse"":""n""},{""word"":""PIROS"",""color"":""red"",""congruency"":""con"",""correctResponse"":""x""},{""word"":""KÉK"",""color"":""blue"",""congruency"":""con"",""correctResponse"":""n""},{""word"":""PIROS"",""color"":""green"",""congruency"":""inc"",""correctResponse"":""c""},{""word"":""SÁRGA"",""color"":""yellow"",""congruency"":""con"",""correctResponse"":""m""},{""word"":""ZÖLD"",""color"":""green"",""congruency"":""con"",""correctResponse"":""c""},{""word"":""SÁRGA"",""color"":""blue"",""congruency"":""inc"",""correctResponse"":""n""},{""word"":""ZÖLD"",""color"":""red"",""congruency"":""inc"",""correctResponse"":""x""},{""word"":""KÉK"",""color"":""yellow"",""congruency"":""inc"",""correctResponse"":""m""}]"	524198.99999999994	524198	520944	520930.00000000006	520961	524232	KÉK
1_StroopCalibrationTrial	flow.Sequence	7_0_1_2	2021-11-27T13:51:56Z	1	"[{""word"":""PIROS"",""color"":""red"",""congruency"":""con"",""correctResponse"":""x""},{""word"":""KÉK"",""color"":""blue"",""congruency"":""con"",""correctResponse"":""n""},{""word"":""ZÖLD"",""color"":""green"",""congruency"":""con"",""correctResponse"":""c""},{""word"":""SÁRGA"",""color"":""yellow"",""congruency"":""con"",""correctResponse"":""m""}]"	green	con	TRUE	c	2133	response	NA	NA	NA	c	keypress(c)	"[{""word"":""KÉK"",""color"":""blue"",""congruency"":""con"",""correctResponse"":""n""},{""word"":""PIROS"",""color"":""red"",""congruency"":""con"",""correctResponse"":""x""},{""word"":""KÉK"",""color"":""blue"",""congruency"":""con"",""correctResponse"":""n""},{""word"":""PIROS"",""color"":""green"",""congruency"":""inc"",""correctResponse"":""c""},{""word"":""SÁRGA"",""color"":""yellow"",""congruency"":""con"",""correctResponse"":""m""},{""word"":""ZÖLD"",""color"":""green"",""congruency"":""con"",""correctResponse"":""c""},{""word"":""SÁRGA"",""color"":""blue"",""congruency"":""inc"",""correctResponse"":""n""},{""word"":""ZÖLD"",""color"":""red"",""congruency"":""inc"",""correctResponse"":""x""},{""word"":""KÉK"",""color"":""yellow"",""congruency"":""inc"",""correctResponse"":""m""}]"	526352	526350	524217	524200.00000000006	524232	526390	ZÖLD
1_StroopCalibrationTrial	flow.Sequence	7_0_1_3	2021-11-27T13:51:59Z	1	"[{""word"":""PIROS"",""color"":""red"",""congruency"":""con"",""correctResponse"":""x""},{""word"":""KÉK"",""color"":""blue"",""congruency"":""con"",""correctResponse"":""n""},{""word"":""ZÖLD"",""color"":""green"",""congruency"":""con"",""correctResponse"":""c""},{""word"":""SÁRGA"",""color"":""yellow"",""congruency"":""con"",""correctResponse"":""m""}]"	yellow	con	TRUE	m	2801	response	NA	NA	NA	m	keypress(m)	"[{""word"":""KÉK"",""color"":""blue"",""congruency"":""con"",""correctResponse"":""n""},{""word"":""PIROS"",""color"":""red"",""congruency"":""con"",""correctResponse"":""x""},{""word"":""KÉK"",""color"":""blue"",""congruency"":""con"",""correctResponse"":""n""},{""word"":""PIROS"",""color"":""green"",""congruency"":""inc"",""correctResponse"":""c""},{""word"":""SÁRGA"",""color"":""yellow"",""congruency"":""con"",""correctResponse"":""m""},{""word"":""ZÖLD"",""color"":""green"",""congruency"":""con"",""correctResponse"":""c""},{""word"":""SÁRGA"",""color"":""blue"",""congruency"":""inc"",""correctResponse"":""n""},{""word"":""ZÖLD"",""color"":""red"",""congruency"":""inc"",""correctResponse"":""x""},{""word"":""KÉK"",""color"":""yellow"",""congruency"":""inc"",""correctResponse"":""m""}]"	529177	529175	526374	526352	526390	529213	SÁRGA
	flow.Loop	7_0_1	2021-11-27T13:51:59Z	1	"[{""word"":""PIROS"",""color"":""red"",""congruency"":""con"",""correctResponse"":""x""},{""word"":""KÉK"",""color"":""blue"",""congruency"":""con"",""correctResponse"":""n""},{""word"":""ZÖLD"",""color"":""green"",""congruency"":""con"",""correctResponse"":""c""},{""word"":""SÁRGA"",""color"":""yellow"",""congruency"":""con"",""correctResponse"":""m""}]"			NA		8906	completion	NA	NA	NA			"[{""word"":""KÉK"",""color"":""blue"",""congruency"":""con"",""correctResponse"":""n""},{""word"":""PIROS"",""color"":""red"",""congruency"":""con"",""correctResponse"":""x""},{""word"":""KÉK"",""color"":""blue"",""congruency"":""con"",""correctResponse"":""n""},{""word"":""PIROS"",""color"":""green"",""congruency"":""inc"",""correctResponse"":""c""},{""word"":""SÁRGA"",""color"":""yellow"",""congruency"":""con"",""correctResponse"":""m""},{""word"":""ZÖLD"",""color"":""green"",""congruency"":""con"",""correctResponse"":""c""},{""word"":""SÁRGA"",""color"":""blue"",""congruency"":""inc"",""correctResponse"":""n""},{""word"":""ZÖLD"",""color"":""red"",""congruency"":""inc"",""correctResponse"":""x""},{""word"":""KÉK"",""color"":""yellow"",""congruency"":""inc"",""correctResponse"":""m""}]"	529177	529175	520253	520253.00000000006	520269	529213	
endCalibrationScreen	html.Screen	7_0_2	2021-11-27T13:53:02Z	1	"[{""word"":""PIROS"",""color"":""red"",""congruency"":""con"",""correctResponse"":""x""},{""word"":""KÉK"",""color"":""blue"",""congruency"":""con"",""correctResponse"":""n""},{""word"":""ZÖLD"",""color"":""green"",""congruency"":""con"",""correctResponse"":""c""},{""word"":""SÁRGA"",""color"":""yellow"",""congruency"":""con"",""correctResponse"":""m""}]"			NA		63229	response	NA	2215	NA	continue	keypress(Space)	"[{""word"":""KÉK"",""color"":""blue"",""congruency"":""con"",""correctResponse"":""n""},{""word"":""PIROS"",""color"":""red"",""congruency"":""con"",""correctResponse"":""x""},{""word"":""KÉK"",""color"":""blue"",""congruency"":""con"",""correctResponse"":""n""},{""word"":""PIROS"",""color"":""green"",""congruency"":""inc"",""correctResponse"":""c""},{""word"":""SÁRGA"",""color"":""yellow"",""congruency"":""con"",""correctResponse"":""m""},{""word"":""ZÖLD"",""color"":""green"",""congruency"":""con"",""correctResponse"":""c""},{""word"":""SÁRGA"",""color"":""blue"",""congruency"":""inc"",""correctResponse"":""n""},{""word"":""ZÖLD"",""color"":""red"",""congruency"":""inc"",""correctResponse"":""x""},{""word"":""KÉK"",""color"":""yellow"",""congruency"":""inc"",""correctResponse"":""m""}]"	592427	592426	529197	529177	529213	592461	
	flow.Loop	7_0_3	2021-11-27T13:53:05Z	1	"[{""word"":""PIROS"",""color"":""red"",""congruency"":""con"",""correctResponse"":""x""},{""word"":""KÉK"",""color"":""blue"",""congruency"":""con"",""correctResponse"":""n""},{""word"":""ZÖLD"",""color"":""green"",""congruency"":""con"",""correctResponse"":""c""},{""word"":""SÁRGA"",""color"":""yellow"",""congruency"":""con"",""correctResponse"":""m""}]"			NA		3002	completion	NA	2215	NA			"[{""word"":""KÉK"",""color"":""blue"",""congruency"":""con"",""correctResponse"":""n""},{""word"":""PIROS"",""color"":""red"",""congruency"":""con"",""correctResponse"":""x""},{""word"":""KÉK"",""color"":""blue"",""congruency"":""con"",""correctResponse"":""n""},{""word"":""PIROS"",""color"":""green"",""congruency"":""inc"",""correctResponse"":""c""},{""word"":""SÁRGA"",""color"":""yellow"",""congruency"":""con"",""correctResponse"":""m""},{""word"":""ZÖLD"",""color"":""green"",""congruency"":""con"",""correctResponse"":""c""},{""word"":""SÁRGA"",""color"":""blue"",""congruency"":""inc"",""correctResponse"":""n""},{""word"":""ZÖLD"",""color"":""red"",""congruency"":""inc"",""correctResponse"":""x""},{""word"":""KÉK"",""color"":""yellow"",""congruency"":""inc"",""correctResponse"":""m""}]"	595463	595463	592445	592428	592461	595479	
1_StroopTestTrial	flow.Sequence	7_0_4_0	2021-11-27T13:53:08Z	1	"[{""word"":""PIROS"",""color"":""red"",""congruency"":""con"",""correctResponse"":""x""},{""word"":""KÉK"",""color"":""blue"",""congruency"":""con"",""correctResponse"":""n""},{""word"":""ZÖLD"",""color"":""green"",""congruency"":""con"",""correctResponse"":""c""},{""word"":""SÁRGA"",""color"":""yellow"",""congruency"":""con"",""correctResponse"":""m""}]"	blue	con	TRUE	n	2458	completion	596801	2215	1322	n		"[{""word"":""KÉK"",""color"":""blue"",""congruency"":""con"",""correctResponse"":""n""},{""word"":""PIROS"",""color"":""red"",""congruency"":""con"",""correctResponse"":""x""},{""word"":""KÉK"",""color"":""blue"",""congruency"":""con"",""correctResponse"":""n""},{""word"":""PIROS"",""color"":""green"",""congruency"":""inc"",""correctResponse"":""c""},{""word"":""SÁRGA"",""color"":""yellow"",""congruency"":""con"",""correctResponse"":""m""},{""word"":""ZÖLD"",""color"":""green"",""congruency"":""con"",""correctResponse"":""c""},{""word"":""SÁRGA"",""color"":""blue"",""congruency"":""inc"",""correctResponse"":""n""},{""word"":""ZÖLD"",""color"":""red"",""congruency"":""inc"",""correctResponse"":""x""},{""word"":""KÉK"",""color"":""yellow"",""congruency"":""inc"",""correctResponse"":""m""}]"	597938	597937	595463	595473	595479	597953	KÉK
1_StroopTestTrial	flow.Sequence	7_0_4_1	2021-11-27T13:53:10Z	1	"[{""word"":""PIROS"",""color"":""red"",""congruency"":""con"",""correctResponse"":""x""},{""word"":""KÉK"",""color"":""blue"",""congruency"":""con"",""correctResponse"":""n""},{""word"":""ZÖLD"",""color"":""green"",""congruency"":""con"",""correctResponse"":""c""},{""word"":""SÁRGA"",""color"":""yellow"",""congruency"":""con"",""correctResponse"":""m""}]"	red	con	TRUE	x	2458	completion	598458	2215	505	x		"[{""word"":""KÉK"",""color"":""blue"",""congruency"":""con"",""correctResponse"":""n""},{""word"":""PIROS"",""color"":""red"",""congruency"":""con"",""correctResponse"":""x""},{""word"":""KÉK"",""color"":""blue"",""congruency"":""con"",""correctResponse"":""n""},{""word"":""PIROS"",""color"":""green"",""congruency"":""inc"",""correctResponse"":""c""},{""word"":""SÁRGA"",""color"":""yellow"",""congruency"":""con"",""correctResponse"":""m""},{""word"":""ZÖLD"",""color"":""green"",""congruency"":""con"",""correctResponse"":""c""},{""word"":""SÁRGA"",""color"":""blue"",""congruency"":""inc"",""correctResponse"":""n""},{""word"":""ZÖLD"",""color"":""red"",""congruency"":""inc"",""correctResponse"":""x""},{""word"":""KÉK"",""color"":""yellow"",""congruency"":""inc"",""correctResponse"":""m""}]"	600411	600411	597937	597938	597953	600427	PIROS
1_StroopTestTrial	flow.Sequence	7_0_4_2	2021-11-27T13:53:13Z	1	"[{""word"":""PIROS"",""color"":""red"",""congruency"":""con"",""correctResponse"":""x""},{""word"":""KÉK"",""color"":""blue"",""congruency"":""con"",""correctResponse"":""n""},{""word"":""ZÖLD"",""color"":""green"",""congruency"":""con"",""correctResponse"":""c""},{""word"":""SÁRGA"",""color"":""yellow"",""congruency"":""con"",""correctResponse"":""m""}]"	blue	con	TRUE	n	2457	completion	602550.0000000001	2215	2123.0000000001164	n		"[{""word"":""KÉK"",""color"":""blue"",""congruency"":""con"",""correctResponse"":""n""},{""word"":""PIROS"",""color"":""red"",""congruency"":""con"",""correctResponse"":""x""},{""word"":""KÉK"",""color"":""blue"",""congruency"":""con"",""correctResponse"":""n""},{""word"":""PIROS"",""color"":""green"",""congruency"":""inc"",""correctResponse"":""c""},{""word"":""SÁRGA"",""color"":""yellow"",""congruency"":""con"",""correctResponse"":""m""},{""word"":""ZÖLD"",""color"":""green"",""congruency"":""con"",""correctResponse"":""c""},{""word"":""SÁRGA"",""color"":""blue"",""congruency"":""inc"",""correctResponse"":""n""},{""word"":""ZÖLD"",""color"":""red"",""congruency"":""inc"",""correctResponse"":""x""},{""word"":""KÉK"",""color"":""yellow"",""congruency"":""inc"",""correctResponse"":""m""}]"	602884	602884	600411	600411	600427	602901	KÉK
1_StroopTestTrial	flow.Sequence	7_0_4_3	2021-11-27T13:53:15Z	1	"[{""word"":""PIROS"",""color"":""red"",""congruency"":""con"",""correctResponse"":""x""},{""word"":""KÉK"",""color"":""blue"",""congruency"":""con"",""correctResponse"":""n""},{""word"":""ZÖLD"",""color"":""green"",""congruency"":""con"",""correctResponse"":""c""},{""word"":""SÁRGA"",""color"":""yellow"",""congruency"":""con"",""correctResponse"":""m""}]"	green	inc	TRUE	c	2457	completion	604846	2215	1945	c		"[{""word"":""KÉK"",""color"":""blue"",""congruency"":""con"",""correctResponse"":""n""},{""word"":""PIROS"",""color"":""red"",""congruency"":""con"",""correctResponse"":""x""},{""word"":""KÉK"",""color"":""blue"",""congruency"":""con"",""correctResponse"":""n""},{""word"":""PIROS"",""color"":""green"",""congruency"":""inc"",""correctResponse"":""c""},{""word"":""SÁRGA"",""color"":""yellow"",""congruency"":""con"",""correctResponse"":""m""},{""word"":""ZÖLD"",""color"":""green"",""congruency"":""con"",""correctResponse"":""c""},{""word"":""SÁRGA"",""color"":""blue"",""congruency"":""inc"",""correctResponse"":""n""},{""word"":""ZÖLD"",""color"":""red"",""congruency"":""inc"",""correctResponse"":""x""},{""word"":""KÉK"",""color"":""yellow"",""congruency"":""inc"",""correctResponse"":""m""}]"	605359	605358	602884	602884	602901	605374	PIROS
1_StroopTestTrial	flow.Sequence	7_0_4_4	2021-11-27T13:53:18Z	1	"[{""word"":""PIROS"",""color"":""red"",""congruency"":""con"",""correctResponse"":""x""},{""word"":""KÉK"",""color"":""blue"",""congruency"":""con"",""correctResponse"":""n""},{""word"":""ZÖLD"",""color"":""green"",""congruency"":""con"",""correctResponse"":""c""},{""word"":""SÁRGA"",""color"":""yellow"",""congruency"":""con"",""correctResponse"":""m""}]"	yellow	con	TRUE	m	2459	completion	606814	2215	1440	m		"[{""word"":""KÉK"",""color"":""blue"",""congruency"":""con"",""correctResponse"":""n""},{""word"":""PIROS"",""color"":""red"",""congruency"":""con"",""correctResponse"":""x""},{""word"":""KÉK"",""color"":""blue"",""congruency"":""con"",""correctResponse"":""n""},{""word"":""PIROS"",""color"":""green"",""congruency"":""inc"",""correctResponse"":""c""},{""word"":""SÁRGA"",""color"":""yellow"",""congruency"":""con"",""correctResponse"":""m""},{""word"":""ZÖLD"",""color"":""green"",""congruency"":""con"",""correctResponse"":""c""},{""word"":""SÁRGA"",""color"":""blue"",""congruency"":""inc"",""correctResponse"":""n""},{""word"":""ZÖLD"",""color"":""red"",""congruency"":""inc"",""correctResponse"":""x""},{""word"":""KÉK"",""color"":""yellow"",""congruency"":""inc"",""correctResponse"":""m""}]"	607833	607833	605358	605359	605374	607850	SÁRGA
1_StroopTestTrial	flow.Sequence	7_0_4_5	2021-11-27T13:53:20Z	1	"[{""word"":""PIROS"",""color"":""red"",""congruency"":""con"",""correctResponse"":""x""},{""word"":""KÉK"",""color"":""blue"",""congruency"":""con"",""correctResponse"":""n""},{""word"":""ZÖLD"",""color"":""green"",""congruency"":""con"",""correctResponse"":""c""},{""word"":""SÁRGA"",""color"":""yellow"",""congruency"":""con"",""correctResponse"":""m""}]"	green	con	TRUE	c	2457	completion	609249	2215	1399	c		"[{""word"":""KÉK"",""color"":""blue"",""congruency"":""con"",""correctResponse"":""n""},{""word"":""PIROS"",""color"":""red"",""congruency"":""con"",""correctResponse"":""x""},{""word"":""KÉK"",""color"":""blue"",""congruency"":""con"",""correctResponse"":""n""},{""word"":""PIROS"",""color"":""green"",""congruency"":""inc"",""correctResponse"":""c""},{""word"":""SÁRGA"",""color"":""yellow"",""congruency"":""con"",""correctResponse"":""m""},{""word"":""ZÖLD"",""color"":""green"",""congruency"":""con"",""correctResponse"":""c""},{""word"":""SÁRGA"",""color"":""blue"",""congruency"":""inc"",""correctResponse"":""n""},{""word"":""ZÖLD"",""color"":""red"",""congruency"":""inc"",""correctResponse"":""x""},{""word"":""KÉK"",""color"":""yellow"",""congruency"":""inc"",""correctResponse"":""m""}]"	610308	610307	607833	607833	607850	610323	ZÖLD
1_StroopTestTrial	flow.Sequence	7_0_4_6	2021-11-27T13:53:22Z	1	"[{""word"":""PIROS"",""color"":""red"",""congruency"":""con"",""correctResponse"":""x""},{""word"":""KÉK"",""color"":""blue"",""congruency"":""con"",""correctResponse"":""n""},{""word"":""ZÖLD"",""color"":""green"",""congruency"":""con"",""correctResponse"":""c""},{""word"":""SÁRGA"",""color"":""yellow"",""congruency"":""con"",""correctResponse"":""m""}]"	blue	inc	NA	n	2458	completion	NA	2215	NA			"[{""word"":""KÉK"",""color"":""blue"",""congruency"":""con"",""correctResponse"":""n""},{""word"":""PIROS"",""color"":""red"",""congruency"":""con"",""correctResponse"":""x""},{""word"":""KÉK"",""color"":""blue"",""congruency"":""con"",""correctResponse"":""n""},{""word"":""PIROS"",""color"":""green"",""congruency"":""inc"",""correctResponse"":""c""},{""word"":""SÁRGA"",""color"":""yellow"",""congruency"":""con"",""correctResponse"":""m""},{""word"":""ZÖLD"",""color"":""green"",""congruency"":""con"",""correctResponse"":""c""},{""word"":""SÁRGA"",""color"":""blue"",""congruency"":""inc"",""correctResponse"":""n""},{""word"":""ZÖLD"",""color"":""red"",""congruency"":""inc"",""correctResponse"":""x""},{""word"":""KÉK"",""color"":""yellow"",""congruency"":""inc"",""correctResponse"":""m""}]"	612782	612781	610307	610308	610323	612798	SÁRGA
1_StroopTestTrial	flow.Sequence	7_0_4_7	2021-11-27T13:53:25Z	1	"[{""word"":""PIROS"",""color"":""red"",""congruency"":""con"",""correctResponse"":""x""},{""word"":""KÉK"",""color"":""blue"",""congruency"":""con"",""correctResponse"":""n""},{""word"":""ZÖLD"",""color"":""green"",""congruency"":""con"",""correctResponse"":""c""},{""word"":""SÁRGA"",""color"":""yellow"",""congruency"":""con"",""correctResponse"":""m""}]"	red	inc	FALSE	x	2456	completion	614047	2215	1249	n		"[{""word"":""KÉK"",""color"":""blue"",""congruency"":""con"",""correctResponse"":""n""},{""word"":""PIROS"",""color"":""red"",""congruency"":""con"",""correctResponse"":""x""},{""word"":""KÉK"",""color"":""blue"",""congruency"":""con"",""correctResponse"":""n""},{""word"":""PIROS"",""color"":""green"",""congruency"":""inc"",""correctResponse"":""c""},{""word"":""SÁRGA"",""color"":""yellow"",""congruency"":""con"",""correctResponse"":""m""},{""word"":""ZÖLD"",""color"":""green"",""congruency"":""con"",""correctResponse"":""c""},{""word"":""SÁRGA"",""color"":""blue"",""congruency"":""inc"",""correctResponse"":""n""},{""word"":""ZÖLD"",""color"":""red"",""congruency"":""inc"",""correctResponse"":""x""},{""word"":""KÉK"",""color"":""yellow"",""congruency"":""inc"",""correctResponse"":""m""}]"	615255	615254	612781	612782	612798	615272	ZÖLD
1_StroopTestTrial	flow.Sequence	7_0_4_8	2021-11-27T13:53:27Z	1	"[{""word"":""PIROS"",""color"":""red"",""congruency"":""con"",""correctResponse"":""x""},{""word"":""KÉK"",""color"":""blue"",""congruency"":""con"",""correctResponse"":""n""},{""word"":""ZÖLD"",""color"":""green"",""congruency"":""con"",""correctResponse"":""c""},{""word"":""SÁRGA"",""color"":""yellow"",""congruency"":""con"",""correctResponse"":""m""}]"	yellow	inc	TRUE	m	2457	completion	616750	2215	1478	m		"[{""word"":""KÉK"",""color"":""blue"",""congruency"":""con"",""correctResponse"":""n""},{""word"":""PIROS"",""color"":""red"",""congruency"":""con"",""correctResponse"":""x""},{""word"":""KÉK"",""color"":""blue"",""congruency"":""con"",""correctResponse"":""n""},{""word"":""PIROS"",""color"":""green"",""congruency"":""inc"",""correctResponse"":""c""},{""word"":""SÁRGA"",""color"":""yellow"",""congruency"":""con"",""correctResponse"":""m""},{""word"":""ZÖLD"",""color"":""green"",""congruency"":""con"",""correctResponse"":""c""},{""word"":""SÁRGA"",""color"":""blue"",""congruency"":""inc"",""correctResponse"":""n""},{""word"":""ZÖLD"",""color"":""red"",""congruency"":""inc"",""correctResponse"":""x""},{""word"":""KÉK"",""color"":""yellow"",""congruency"":""inc"",""correctResponse"":""m""}]"	617729	617729	615254	615255	615272	617745	KÉK
	flow.Loop	7_0_4	2021-11-27T13:53:27Z	1	"[{""word"":""PIROS"",""color"":""red"",""congruency"":""con"",""correctResponse"":""x""},{""word"":""KÉK"",""color"":""blue"",""congruency"":""con"",""correctResponse"":""n""},{""word"":""ZÖLD"",""color"":""green"",""congruency"":""con"",""correctResponse"":""c""},{""word"":""SÁRGA"",""color"":""yellow"",""congruency"":""con"",""correctResponse"":""m""}]"			NA		22250	completion	NA	2215	NA			"[{""word"":""KÉK"",""color"":""blue"",""congruency"":""con"",""correctResponse"":""n""},{""word"":""PIROS"",""color"":""red"",""congruency"":""con"",""correctResponse"":""x""},{""word"":""KÉK"",""color"":""blue"",""congruency"":""con"",""correctResponse"":""n""},{""word"":""PIROS"",""color"":""green"",""congruency"":""inc"",""correctResponse"":""c""},{""word"":""SÁRGA"",""color"":""yellow"",""congruency"":""con"",""correctResponse"":""m""},{""word"":""ZÖLD"",""color"":""green"",""congruency"":""con"",""correctResponse"":""c""},{""word"":""SÁRGA"",""color"":""blue"",""congruency"":""inc"",""correctResponse"":""n""},{""word"":""ZÖLD"",""color"":""red"",""congruency"":""inc"",""correctResponse"":""x""},{""word"":""KÉK"",""color"":""yellow"",""congruency"":""inc"",""correctResponse"":""m""}]"	617730	617729	595463	595473	595479	617745	
betweenBlockScreen	html.Screen	7_0_5	2021-11-27T13:53:43Z	1	"[{""word"":""PIROS"",""color"":""red"",""congruency"":""con"",""correctResponse"":""x""},{""word"":""KÉK"",""color"":""blue"",""congruency"":""con"",""correctResponse"":""n""},{""word"":""ZÖLD"",""color"":""green"",""congruency"":""con"",""correctResponse"":""c""},{""word"":""SÁRGA"",""color"":""yellow"",""congruency"":""con"",""correctResponse"":""m""}]"			NA		15228	response	NA	2215	NA	continue	keypress(Space)	"[{""word"":""KÉK"",""color"":""blue"",""congruency"":""con"",""correctResponse"":""n""},{""word"":""PIROS"",""color"":""red"",""congruency"":""con"",""correctResponse"":""x""},{""word"":""KÉK"",""color"":""blue"",""congruency"":""con"",""correctResponse"":""n""},{""word"":""PIROS"",""color"":""green"",""congruency"":""inc"",""correctResponse"":""c""},{""word"":""SÁRGA"",""color"":""yellow"",""congruency"":""con"",""correctResponse"":""m""},{""word"":""ZÖLD"",""color"":""green"",""congruency"":""con"",""correctResponse"":""c""},{""word"":""SÁRGA"",""color"":""blue"",""congruency"":""inc"",""correctResponse"":""n""},{""word"":""ZÖLD"",""color"":""red"",""congruency"":""inc"",""correctResponse"":""x""},{""word"":""KÉK"",""color"":""yellow"",""congruency"":""inc"",""correctResponse"":""m""}]"	632959.0000000001	632957	617729	617731	617745	632994	
blockLoop	flow.Sequence	7_0	2021-11-27T13:53:43Z	1	"[{""word"":""PIROS"",""color"":""red"",""congruency"":""con"",""correctResponse"":""x""},{""word"":""KÉK"",""color"":""blue"",""congruency"":""con"",""correctResponse"":""n""},{""word"":""ZÖLD"",""color"":""green"",""congruency"":""con"",""correctResponse"":""c""},{""word"":""SÁRGA"",""color"":""yellow"",""congruency"":""con"",""correctResponse"":""m""}]"			NA		115703	completion	NA	2215	NA			"[{""word"":""KÉK"",""color"":""blue"",""congruency"":""con"",""correctResponse"":""n""},{""word"":""PIROS"",""color"":""red"",""congruency"":""con"",""correctResponse"":""x""},{""word"":""KÉK"",""color"":""blue"",""congruency"":""con"",""correctResponse"":""n""},{""word"":""PIROS"",""color"":""green"",""congruency"":""inc"",""correctResponse"":""c""},{""word"":""SÁRGA"",""color"":""yellow"",""congruency"":""con"",""correctResponse"":""m""},{""word"":""ZÖLD"",""color"":""green"",""congruency"":""con"",""correctResponse"":""c""},{""word"":""SÁRGA"",""color"":""blue"",""congruency"":""inc"",""correctResponse"":""n""},{""word"":""ZÖLD"",""color"":""red"",""congruency"":""inc"",""correctResponse"":""x""},{""word"":""KÉK"",""color"":""yellow"",""congruency"":""inc"",""correctResponse"":""m""}]"	632959.0000000001	632957	517237	517212	517254	632994	
	flow.Loop	7_1_0	2021-11-27T13:53:46Z	2	"[{""word"":""ZÖLD"",""color"":""green"",""congruency"":""con"",""correctResponse"":""c""},{""word"":""SÁRGA"",""color"":""yellow"",""congruency"":""con"",""correctResponse"":""m""},{""word"":""PIROS"",""color"":""red"",""congruency"":""con"",""correctResponse"":""x""},{""word"":""KÉK"",""color"":""blue"",""congruency"":""con"",""correctResponse"":""n""}]"			NA		2998	completion	NA	NA	NA			"[{""word"":""SÁRGA"",""color"":""blue"",""congruency"":""inc"",""correctResponse"":""n""},{""word"":""PIROS"",""color"":""red"",""congruency"":""con"",""correctResponse"":""x""},{""word"":""KÉK"",""color"":""yellow"",""congruency"":""inc"",""correctResponse"":""m""},{""word"":""PIROS"",""color"":""green"",""congruency"":""inc"",""correctResponse"":""c""},{""word"":""SÁRGA"",""color"":""blue"",""congruency"":""inc"",""correctResponse"":""n""},{""word"":""ZÖLD"",""color"":""red"",""congruency"":""inc"",""correctResponse"":""x""},{""word"":""SÁRGA"",""color"":""yellow"",""congruency"":""con"",""correctResponse"":""m""},{""word"":""ZÖLD"",""color"":""green"",""congruency"":""con"",""correctResponse"":""c""},{""word"":""KÉK"",""color"":""blue"",""congruency"":""con"",""correctResponse"":""n""}]"	635992	635992	632977	632959.0000000001	632994	636007	
2_StroopCalibrationTrial	flow.Sequence	7_1_1_0	2021-11-27T13:53:47Z	2	"[{""word"":""ZÖLD"",""color"":""green"",""congruency"":""con"",""correctResponse"":""c""},{""word"":""SÁRGA"",""color"":""yellow"",""congruency"":""con"",""correctResponse"":""m""},{""word"":""PIROS"",""color"":""red"",""congruency"":""con"",""correctResponse"":""x""},{""word"":""KÉK"",""color"":""blue"",""congruency"":""con"",""correctResponse"":""n""}]"	green	con	TRUE	c	1746	response	NA	NA	NA	c	keypress(c)	"[{""word"":""SÁRGA"",""color"":""blue"",""congruency"":""inc"",""correctResponse"":""n""},{""word"":""PIROS"",""color"":""red"",""congruency"":""con"",""correctResponse"":""x""},{""word"":""KÉK"",""color"":""yellow"",""congruency"":""inc"",""correctResponse"":""m""},{""word"":""PIROS"",""color"":""green"",""congruency"":""inc"",""correctResponse"":""c""},{""word"":""SÁRGA"",""color"":""blue"",""congruency"":""inc"",""correctResponse"":""n""},{""word"":""ZÖLD"",""color"":""red"",""congruency"":""inc"",""correctResponse"":""x""},{""word"":""SÁRGA"",""color"":""yellow"",""congruency"":""con"",""correctResponse"":""m""},{""word"":""ZÖLD"",""color"":""green"",""congruency"":""con"",""correctResponse"":""c""},{""word"":""KÉK"",""color"":""blue"",""congruency"":""con"",""correctResponse"":""n""}]"	637739	637738	635992	635992	636007	637783	ZÖLD
2_StroopCalibrationTrial	flow.Sequence	7_1_1_1	2021-11-27T13:53:49Z	2	"[{""word"":""ZÖLD"",""color"":""green"",""congruency"":""con"",""correctResponse"":""c""},{""word"":""SÁRGA"",""color"":""yellow"",""congruency"":""con"",""correctResponse"":""m""},{""word"":""PIROS"",""color"":""red"",""congruency"":""con"",""correctResponse"":""x""},{""word"":""KÉK"",""color"":""blue"",""congruency"":""con"",""correctResponse"":""n""}]"	yellow	con	TRUE	m	1724	response	NA	NA	NA	m	keypress(m)	"[{""word"":""SÁRGA"",""color"":""blue"",""congruency"":""inc"",""correctResponse"":""n""},{""word"":""PIROS"",""color"":""red"",""congruency"":""con"",""correctResponse"":""x""},{""word"":""KÉK"",""color"":""yellow"",""congruency"":""inc"",""correctResponse"":""m""},{""word"":""PIROS"",""color"":""green"",""congruency"":""inc"",""correctResponse"":""c""},{""word"":""SÁRGA"",""color"":""blue"",""congruency"":""inc"",""correctResponse"":""n""},{""word"":""ZÖLD"",""color"":""red"",""congruency"":""inc"",""correctResponse"":""x""},{""word"":""SÁRGA"",""color"":""yellow"",""congruency"":""con"",""correctResponse"":""m""},{""word"":""ZÖLD"",""color"":""green"",""congruency"":""con"",""correctResponse"":""c""},{""word"":""KÉK"",""color"":""blue"",""congruency"":""con"",""correctResponse"":""n""}]"	639491	639490	637766	637739	637783	639522	SÁRGA
2_StroopCalibrationTrial	flow.Sequence	7_1_1_2	2021-11-27T13:53:51Z	2	"[{""word"":""ZÖLD"",""color"":""green"",""congruency"":""con"",""correctResponse"":""c""},{""word"":""SÁRGA"",""color"":""yellow"",""congruency"":""con"",""correctResponse"":""m""},{""word"":""PIROS"",""color"":""red"",""congruency"":""con"",""correctResponse"":""x""},{""word"":""KÉK"",""color"":""blue"",""congruency"":""con"",""correctResponse"":""n""}]"	red	con	TRUE	x	1484	response	NA	NA	NA	x	keypress(x)	"[{""word"":""SÁRGA"",""color"":""blue"",""congruency"":""inc"",""correctResponse"":""n""},{""word"":""PIROS"",""color"":""red"",""congruency"":""con"",""correctResponse"":""x""},{""word"":""KÉK"",""color"":""yellow"",""congruency"":""inc"",""correctResponse"":""m""},{""word"":""PIROS"",""color"":""green"",""congruency"":""inc"",""correctResponse"":""c""},{""word"":""SÁRGA"",""color"":""blue"",""congruency"":""inc"",""correctResponse"":""n""},{""word"":""ZÖLD"",""color"":""red"",""congruency"":""inc"",""correctResponse"":""x""},{""word"":""SÁRGA"",""color"":""yellow"",""congruency"":""con"",""correctResponse"":""m""},{""word"":""ZÖLD"",""color"":""green"",""congruency"":""con"",""correctResponse"":""c""},{""word"":""KÉK"",""color"":""blue"",""congruency"":""con"",""correctResponse"":""n""}]"	640993	640991	639507	639491	639522	641030	PIROS
2_StroopCalibrationTrial	flow.Sequence	7_1_1_3	2021-11-27T13:53:52Z	2	"[{""word"":""ZÖLD"",""color"":""green"",""congruency"":""con"",""correctResponse"":""c""},{""word"":""SÁRGA"",""color"":""yellow"",""congruency"":""con"",""correctResponse"":""m""},{""word"":""PIROS"",""color"":""red"",""congruency"":""con"",""correctResponse"":""x""},{""word"":""KÉK"",""color"":""blue"",""congruency"":""con"",""correctResponse"":""n""}]"	blue	con	TRUE	n	1765	response	NA	NA	NA	n	keypress(n)	"[{""word"":""SÁRGA"",""color"":""blue"",""congruency"":""inc"",""correctResponse"":""n""},{""word"":""PIROS"",""color"":""red"",""congruency"":""con"",""correctResponse"":""x""},{""word"":""KÉK"",""color"":""yellow"",""congruency"":""inc"",""correctResponse"":""m""},{""word"":""PIROS"",""color"":""green"",""congruency"":""inc"",""correctResponse"":""c""},{""word"":""SÁRGA"",""color"":""blue"",""congruency"":""inc"",""correctResponse"":""n""},{""word"":""ZÖLD"",""color"":""red"",""congruency"":""inc"",""correctResponse"":""x""},{""word"":""SÁRGA"",""color"":""yellow"",""congruency"":""con"",""correctResponse"":""m""},{""word"":""ZÖLD"",""color"":""green"",""congruency"":""con"",""correctResponse"":""c""},{""word"":""KÉK"",""color"":""blue"",""congruency"":""con"",""correctResponse"":""n""}]"	642780	642778	641013	640993	641030	642821	KÉK
	flow.Loop	7_1_1	2021-11-27T13:53:52Z	2	"[{""word"":""ZÖLD"",""color"":""green"",""congruency"":""con"",""correctResponse"":""c""},{""word"":""SÁRGA"",""color"":""yellow"",""congruency"":""con"",""correctResponse"":""m""},{""word"":""PIROS"",""color"":""red"",""congruency"":""con"",""correctResponse"":""x""},{""word"":""KÉK"",""color"":""blue"",""congruency"":""con"",""correctResponse"":""n""}]"			NA		6771	completion	NA	NA	NA			"[{""word"":""SÁRGA"",""color"":""blue"",""congruency"":""inc"",""correctResponse"":""n""},{""word"":""PIROS"",""color"":""red"",""congruency"":""con"",""correctResponse"":""x""},{""word"":""KÉK"",""color"":""yellow"",""congruency"":""inc"",""correctResponse"":""m""},{""word"":""PIROS"",""color"":""green"",""congruency"":""inc"",""correctResponse"":""c""},{""word"":""SÁRGA"",""color"":""blue"",""congruency"":""inc"",""correctResponse"":""n""},{""word"":""ZÖLD"",""color"":""red"",""congruency"":""inc"",""correctResponse"":""x""},{""word"":""SÁRGA"",""color"":""yellow"",""congruency"":""con"",""correctResponse"":""m""},{""word"":""ZÖLD"",""color"":""green"",""congruency"":""con"",""correctResponse"":""c""},{""word"":""KÉK"",""color"":""blue"",""congruency"":""con"",""correctResponse"":""n""}]"	642780	642778	635992	635992	636007	642821	
endCalibrationScreen	html.Screen	7_1_2	2021-11-27T13:54:00Z	2	"[{""word"":""ZÖLD"",""color"":""green"",""congruency"":""con"",""correctResponse"":""c""},{""word"":""SÁRGA"",""color"":""yellow"",""congruency"":""con"",""correctResponse"":""m""},{""word"":""PIROS"",""color"":""red"",""congruency"":""con"",""correctResponse"":""x""},{""word"":""KÉK"",""color"":""blue"",""congruency"":""con"",""correctResponse"":""n""}]"			NA		7623	response	NA	1679	NA	continue	keypress(Space)	"[{""word"":""SÁRGA"",""color"":""blue"",""congruency"":""inc"",""correctResponse"":""n""},{""word"":""PIROS"",""color"":""red"",""congruency"":""con"",""correctResponse"":""x""},{""word"":""KÉK"",""color"":""yellow"",""congruency"":""inc"",""correctResponse"":""m""},{""word"":""PIROS"",""color"":""green"",""congruency"":""inc"",""correctResponse"":""c""},{""word"":""SÁRGA"",""color"":""blue"",""congruency"":""inc"",""correctResponse"":""n""},{""word"":""ZÖLD"",""color"":""red"",""congruency"":""inc"",""correctResponse"":""x""},{""word"":""SÁRGA"",""color"":""yellow"",""congruency"":""con"",""correctResponse"":""m""},{""word"":""ZÖLD"",""color"":""green"",""congruency"":""con"",""correctResponse"":""c""},{""word"":""KÉK"",""color"":""blue"",""congruency"":""con"",""correctResponse"":""n""}]"	650429	650427	642804	642780	642821	650461	
	flow.Loop	7_1_3	2021-11-27T13:54:03Z	2	"[{""word"":""ZÖLD"",""color"":""green"",""congruency"":""con"",""correctResponse"":""c""},{""word"":""SÁRGA"",""color"":""yellow"",""congruency"":""con"",""correctResponse"":""m""},{""word"":""PIROS"",""color"":""red"",""congruency"":""con"",""correctResponse"":""x""},{""word"":""KÉK"",""color"":""blue"",""congruency"":""con"",""correctResponse"":""n""}]"			NA		2995	completion	NA	1679	NA			"[{""word"":""SÁRGA"",""color"":""blue"",""congruency"":""inc"",""correctResponse"":""n""},{""word"":""PIROS"",""color"":""red"",""congruency"":""con"",""correctResponse"":""x""},{""word"":""KÉK"",""color"":""yellow"",""congruency"":""inc"",""correctResponse"":""m""},{""word"":""PIROS"",""color"":""green"",""congruency"":""inc"",""correctResponse"":""c""},{""word"":""SÁRGA"",""color"":""blue"",""congruency"":""inc"",""correctResponse"":""n""},{""word"":""ZÖLD"",""color"":""red"",""congruency"":""inc"",""correctResponse"":""x""},{""word"":""SÁRGA"",""color"":""yellow"",""congruency"":""con"",""correctResponse"":""m""},{""word"":""ZÖLD"",""color"":""green"",""congruency"":""con"",""correctResponse"":""c""},{""word"":""KÉK"",""color"":""blue"",""congruency"":""con"",""correctResponse"":""n""}]"	653456	653456	650444	650429	650461	653473	
2_StroopTestTrial	flow.Sequence	7_1_4_0	2021-11-27T13:54:05Z	2	"[{""word"":""ZÖLD"",""color"":""green"",""congruency"":""con"",""correctResponse"":""c""},{""word"":""SÁRGA"",""color"":""yellow"",""congruency"":""con"",""correctResponse"":""m""},{""word"":""PIROS"",""color"":""red"",""congruency"":""con"",""correctResponse"":""x""},{""word"":""KÉK"",""color"":""blue"",""congruency"":""con"",""correctResponse"":""n""}]"	blue	inc	TRUE	n	1908	completion	654699.0000000001	1679	1226.0000000001164	n		"[{""word"":""SÁRGA"",""color"":""blue"",""congruency"":""inc"",""correctResponse"":""n""},{""word"":""PIROS"",""color"":""red"",""congruency"":""con"",""correctResponse"":""x""},{""word"":""KÉK"",""color"":""yellow"",""congruency"":""inc"",""correctResponse"":""m""},{""word"":""PIROS"",""color"":""green"",""congruency"":""inc"",""correctResponse"":""c""},{""word"":""SÁRGA"",""color"":""blue"",""congruency"":""inc"",""correctResponse"":""n""},{""word"":""ZÖLD"",""color"":""red"",""congruency"":""inc"",""correctResponse"":""x""},{""word"":""SÁRGA"",""color"":""yellow"",""congruency"":""con"",""correctResponse"":""m""},{""word"":""ZÖLD"",""color"":""green"",""congruency"":""con"",""correctResponse"":""c""},{""word"":""KÉK"",""color"":""blue"",""congruency"":""con"",""correctResponse"":""n""}]"	655381	655381	653456	653466	653473	655397	SÁRGA
2_StroopTestTrial	flow.Sequence	7_1_4_1	2021-11-27T13:54:07Z	2	"[{""word"":""ZÖLD"",""color"":""green"",""congruency"":""con"",""correctResponse"":""c""},{""word"":""SÁRGA"",""color"":""yellow"",""congruency"":""con"",""correctResponse"":""m""},{""word"":""PIROS"",""color"":""red"",""congruency"":""con"",""correctResponse"":""x""},{""word"":""KÉK"",""color"":""blue"",""congruency"":""con"",""correctResponse"":""n""}]"	red	con	TRUE	x	1923	completion	656172	1679	775	x		"[{""word"":""SÁRGA"",""color"":""blue"",""congruency"":""inc"",""correctResponse"":""n""},{""word"":""PIROS"",""color"":""red"",""congruency"":""con"",""correctResponse"":""x""},{""word"":""KÉK"",""color"":""yellow"",""congruency"":""inc"",""correctResponse"":""m""},{""word"":""PIROS"",""color"":""green"",""congruency"":""inc"",""correctResponse"":""c""},{""word"":""SÁRGA"",""color"":""blue"",""congruency"":""inc"",""correctResponse"":""n""},{""word"":""ZÖLD"",""color"":""red"",""congruency"":""inc"",""correctResponse"":""x""},{""word"":""SÁRGA"",""color"":""yellow"",""congruency"":""con"",""correctResponse"":""m""},{""word"":""ZÖLD"",""color"":""green"",""congruency"":""con"",""correctResponse"":""c""},{""word"":""KÉK"",""color"":""blue"",""congruency"":""con"",""correctResponse"":""n""}]"	657321	657320	655381	655381	655397	657338	PIROS
2_StroopTestTrial	flow.Sequence	7_1_4_2	2021-11-27T13:54:09Z	2	"[{""word"":""ZÖLD"",""color"":""green"",""congruency"":""con"",""correctResponse"":""c""},{""word"":""SÁRGA"",""color"":""yellow"",""congruency"":""con"",""correctResponse"":""m""},{""word"":""PIROS"",""color"":""red"",""congruency"":""con"",""correctResponse"":""x""},{""word"":""KÉK"",""color"":""blue"",""congruency"":""con"",""correctResponse"":""n""}]"	yellow	inc	NA	m	1906	completion	NA	1679	NA			"[{""word"":""SÁRGA"",""color"":""blue"",""congruency"":""inc"",""correctResponse"":""n""},{""word"":""PIROS"",""color"":""red"",""congruency"":""con"",""correctResponse"":""x""},{""word"":""KÉK"",""color"":""yellow"",""congruency"":""inc"",""correctResponse"":""m""},{""word"":""PIROS"",""color"":""green"",""congruency"":""inc"",""correctResponse"":""c""},{""word"":""SÁRGA"",""color"":""blue"",""congruency"":""inc"",""correctResponse"":""n""},{""word"":""ZÖLD"",""color"":""red"",""congruency"":""inc"",""correctResponse"":""x""},{""word"":""SÁRGA"",""color"":""yellow"",""congruency"":""con"",""correctResponse"":""m""},{""word"":""ZÖLD"",""color"":""green"",""congruency"":""con"",""correctResponse"":""c""},{""word"":""KÉK"",""color"":""blue"",""congruency"":""con"",""correctResponse"":""n""}]"	659244	659244	657320	657321	657338	659262	KÉK
2_StroopTestTrial	flow.Sequence	7_1_4_3	2021-11-27T13:54:11Z	2	"[{""word"":""ZÖLD"",""color"":""green"",""congruency"":""con"",""correctResponse"":""c""},{""word"":""SÁRGA"",""color"":""yellow"",""congruency"":""con"",""correctResponse"":""m""},{""word"":""PIROS"",""color"":""red"",""congruency"":""con"",""correctResponse"":""x""},{""word"":""KÉK"",""color"":""blue"",""congruency"":""con"",""correctResponse"":""n""}]"	green	inc	FALSE	c	1907	completion	659286	1679	24	m		"[{""word"":""SÁRGA"",""color"":""blue"",""congruency"":""inc"",""correctResponse"":""n""},{""word"":""PIROS"",""color"":""red"",""congruency"":""con"",""correctResponse"":""x""},{""word"":""KÉK"",""color"":""yellow"",""congruency"":""inc"",""correctResponse"":""m""},{""word"":""PIROS"",""color"":""green"",""congruency"":""inc"",""correctResponse"":""c""},{""word"":""SÁRGA"",""color"":""blue"",""congruency"":""inc"",""correctResponse"":""n""},{""word"":""ZÖLD"",""color"":""red"",""congruency"":""inc"",""correctResponse"":""x""},{""word"":""SÁRGA"",""color"":""yellow"",""congruency"":""con"",""correctResponse"":""m""},{""word"":""ZÖLD"",""color"":""green"",""congruency"":""con"",""correctResponse"":""c""},{""word"":""KÉK"",""color"":""blue"",""congruency"":""con"",""correctResponse"":""n""}]"	661169	661169	659244	659245	659262	661185	PIROS
2_StroopTestTrial	flow.Sequence	7_1_4_4	2021-11-27T13:54:13Z	2	"[{""word"":""ZÖLD"",""color"":""green"",""congruency"":""con"",""correctResponse"":""c""},{""word"":""SÁRGA"",""color"":""yellow"",""congruency"":""con"",""correctResponse"":""m""},{""word"":""PIROS"",""color"":""red"",""congruency"":""con"",""correctResponse"":""x""},{""word"":""KÉK"",""color"":""blue"",""congruency"":""con"",""correctResponse"":""n""}]"	blue	inc	NA	n	1924	completion	NA	1679	NA			"[{""word"":""SÁRGA"",""color"":""blue"",""congruency"":""inc"",""correctResponse"":""n""},{""word"":""PIROS"",""color"":""red"",""congruency"":""con"",""correctResponse"":""x""},{""word"":""KÉK"",""color"":""yellow"",""congruency"":""inc"",""correctResponse"":""m""},{""word"":""PIROS"",""color"":""green"",""congruency"":""inc"",""correctResponse"":""c""},{""word"":""SÁRGA"",""color"":""blue"",""congruency"":""inc"",""correctResponse"":""n""},{""word"":""ZÖLD"",""color"":""red"",""congruency"":""inc"",""correctResponse"":""x""},{""word"":""SÁRGA"",""color"":""yellow"",""congruency"":""con"",""correctResponse"":""m""},{""word"":""ZÖLD"",""color"":""green"",""congruency"":""con"",""correctResponse"":""c""},{""word"":""KÉK"",""color"":""blue"",""congruency"":""con"",""correctResponse"":""n""}]"	663109	663109	661169	661169	661185	663125	SÁRGA
2_StroopTestTrial	flow.Sequence	7_1_4_5	2021-11-27T13:54:15Z	2	"[{""word"":""ZÖLD"",""color"":""green"",""congruency"":""con"",""correctResponse"":""c""},{""word"":""SÁRGA"",""color"":""yellow"",""congruency"":""con"",""correctResponse"":""m""},{""word"":""PIROS"",""color"":""red"",""congruency"":""con"",""correctResponse"":""x""},{""word"":""KÉK"",""color"":""blue"",""congruency"":""con"",""correctResponse"":""n""}]"	red	inc	FALSE	x	1925	completion	663346	1679	221	n		"[{""word"":""SÁRGA"",""color"":""blue"",""congruency"":""inc"",""correctResponse"":""n""},{""word"":""PIROS"",""color"":""red"",""congruency"":""con"",""correctResponse"":""x""},{""word"":""KÉK"",""color"":""yellow"",""congruency"":""inc"",""correctResponse"":""m""},{""word"":""PIROS"",""color"":""green"",""congruency"":""inc"",""correctResponse"":""c""},{""word"":""SÁRGA"",""color"":""blue"",""congruency"":""inc"",""correctResponse"":""n""},{""word"":""ZÖLD"",""color"":""red"",""congruency"":""inc"",""correctResponse"":""x""},{""word"":""SÁRGA"",""color"":""yellow"",""congruency"":""con"",""correctResponse"":""m""},{""word"":""ZÖLD"",""color"":""green"",""congruency"":""con"",""correctResponse"":""c""},{""word"":""KÉK"",""color"":""blue"",""congruency"":""con"",""correctResponse"":""n""}]"	665050.0000000001	665050	663109	663110	663125	665067	ZÖLD
2_StroopTestTrial	flow.Sequence	7_1_4_6	2021-11-27T13:54:17Z	2	"[{""word"":""ZÖLD"",""color"":""green"",""congruency"":""con"",""correctResponse"":""c""},{""word"":""SÁRGA"",""color"":""yellow"",""congruency"":""con"",""correctResponse"":""m""},{""word"":""PIROS"",""color"":""red"",""congruency"":""con"",""correctResponse"":""x""},{""word"":""KÉK"",""color"":""blue"",""congruency"":""con"",""correctResponse"":""n""}]"	yellow	con	TRUE	m	1907	completion	666100	1679	1033	m		"[{""word"":""SÁRGA"",""color"":""blue"",""congruency"":""inc"",""correctResponse"":""n""},{""word"":""PIROS"",""color"":""red"",""congruency"":""con"",""correctResponse"":""x""},{""word"":""KÉK"",""color"":""yellow"",""congruency"":""inc"",""correctResponse"":""m""},{""word"":""PIROS"",""color"":""green"",""congruency"":""inc"",""correctResponse"":""c""},{""word"":""SÁRGA"",""color"":""blue"",""congruency"":""inc"",""correctResponse"":""n""},{""word"":""ZÖLD"",""color"":""red"",""congruency"":""inc"",""correctResponse"":""x""},{""word"":""SÁRGA"",""color"":""yellow"",""congruency"":""con"",""correctResponse"":""m""},{""word"":""ZÖLD"",""color"":""green"",""congruency"":""con"",""correctResponse"":""c""},{""word"":""KÉK"",""color"":""blue"",""congruency"":""con"",""correctResponse"":""n""}]"	666974	666974	665050	665050.0000000001	665067	666991	SÁRGA
2_StroopTestTrial	flow.Sequence	7_1_4_7	2021-11-27T13:54:19Z	2	"[{""word"":""ZÖLD"",""color"":""green"",""congruency"":""con"",""correctResponse"":""c""},{""word"":""SÁRGA"",""color"":""yellow"",""congruency"":""con"",""correctResponse"":""m""},{""word"":""PIROS"",""color"":""red"",""congruency"":""con"",""correctResponse"":""x""},{""word"":""KÉK"",""color"":""blue"",""congruency"":""con"",""correctResponse"":""n""}]"	green	con	TRUE	c	1907	completion	668155	1679	1164	c		"[{""word"":""SÁRGA"",""color"":""blue"",""congruency"":""inc"",""correctResponse"":""n""},{""word"":""PIROS"",""color"":""red"",""congruency"":""con"",""correctResponse"":""x""},{""word"":""KÉK"",""color"":""yellow"",""congruency"":""inc"",""correctResponse"":""m""},{""word"":""PIROS"",""color"":""green"",""congruency"":""inc"",""correctResponse"":""c""},{""word"":""SÁRGA"",""color"":""blue"",""congruency"":""inc"",""correctResponse"":""n""},{""word"":""ZÖLD"",""color"":""red"",""congruency"":""inc"",""correctResponse"":""x""},{""word"":""SÁRGA"",""color"":""yellow"",""congruency"":""con"",""correctResponse"":""m""},{""word"":""ZÖLD"",""color"":""green"",""congruency"":""con"",""correctResponse"":""c""},{""word"":""KÉK"",""color"":""blue"",""congruency"":""con"",""correctResponse"":""n""}]"	668898	668898	666974	666974	666991	668914	ZÖLD
2_StroopTestTrial	flow.Sequence	7_1_4_8	2021-11-27T13:54:21Z	2	"[{""word"":""ZÖLD"",""color"":""green"",""congruency"":""con"",""correctResponse"":""c""},{""word"":""SÁRGA"",""color"":""yellow"",""congruency"":""con"",""correctResponse"":""m""},{""word"":""PIROS"",""color"":""red"",""congruency"":""con"",""correctResponse"":""x""},{""word"":""KÉK"",""color"":""blue"",""congruency"":""con"",""correctResponse"":""n""}]"	blue	con	TRUE	n	1908	completion	670135	1679	1221	n		"[{""word"":""SÁRGA"",""color"":""blue"",""congruency"":""inc"",""correctResponse"":""n""},{""word"":""PIROS"",""color"":""red"",""congruency"":""con"",""correctResponse"":""x""},{""word"":""KÉK"",""color"":""yellow"",""congruency"":""inc"",""correctResponse"":""m""},{""word"":""PIROS"",""color"":""green"",""congruency"":""inc"",""correctResponse"":""c""},{""word"":""SÁRGA"",""color"":""blue"",""congruency"":""inc"",""correctResponse"":""n""},{""word"":""ZÖLD"",""color"":""red"",""congruency"":""inc"",""correctResponse"":""x""},{""word"":""SÁRGA"",""color"":""yellow"",""congruency"":""con"",""correctResponse"":""m""},{""word"":""ZÖLD"",""color"":""green"",""congruency"":""con"",""correctResponse"":""c""},{""word"":""KÉK"",""color"":""blue"",""congruency"":""con"",""correctResponse"":""n""}]"	670822	670822	668898	668898	668914	670837	KÉK
	flow.Loop	7_1_4	2021-11-27T13:54:21Z	2	"[{""word"":""ZÖLD"",""color"":""green"",""congruency"":""con"",""correctResponse"":""c""},{""word"":""SÁRGA"",""color"":""yellow"",""congruency"":""con"",""correctResponse"":""m""},{""word"":""PIROS"",""color"":""red"",""congruency"":""con"",""correctResponse"":""x""},{""word"":""KÉK"",""color"":""blue"",""congruency"":""con"",""correctResponse"":""n""}]"			NA		17349	completion	NA	1679	NA			"[{""word"":""SÁRGA"",""color"":""blue"",""congruency"":""inc"",""correctResponse"":""n""},{""word"":""PIROS"",""color"":""red"",""congruency"":""con"",""correctResponse"":""x""},{""word"":""KÉK"",""color"":""yellow"",""congruency"":""inc"",""correctResponse"":""m""},{""word"":""PIROS"",""color"":""green"",""congruency"":""inc"",""correctResponse"":""c""},{""word"":""SÁRGA"",""color"":""blue"",""congruency"":""inc"",""correctResponse"":""n""},{""word"":""ZÖLD"",""color"":""red"",""congruency"":""inc"",""correctResponse"":""x""},{""word"":""SÁRGA"",""color"":""yellow"",""congruency"":""con"",""correctResponse"":""m""},{""word"":""ZÖLD"",""color"":""green"",""congruency"":""con"",""correctResponse"":""c""},{""word"":""KÉK"",""color"":""blue"",""congruency"":""con"",""correctResponse"":""n""}]"	670823	670822	653456	653466	653473	670837	
betweenBlockScreen	html.Screen	7_1_5	2021-11-27T13:54:22Z	2	"[{""word"":""ZÖLD"",""color"":""green"",""congruency"":""con"",""correctResponse"":""c""},{""word"":""SÁRGA"",""color"":""yellow"",""congruency"":""con"",""correctResponse"":""m""},{""word"":""PIROS"",""color"":""red"",""congruency"":""con"",""correctResponse"":""x""},{""word"":""KÉK"",""color"":""blue"",""congruency"":""con"",""correctResponse"":""n""}]"			NA		1639	response	NA	1679	NA	continue	keypress(Space)	"[{""word"":""SÁRGA"",""color"":""blue"",""congruency"":""inc"",""correctResponse"":""n""},{""word"":""PIROS"",""color"":""red"",""congruency"":""con"",""correctResponse"":""x""},{""word"":""KÉK"",""color"":""yellow"",""congruency"":""inc"",""correctResponse"":""m""},{""word"":""PIROS"",""color"":""green"",""congruency"":""inc"",""correctResponse"":""c""},{""word"":""SÁRGA"",""color"":""blue"",""congruency"":""inc"",""correctResponse"":""n""},{""word"":""ZÖLD"",""color"":""red"",""congruency"":""inc"",""correctResponse"":""x""},{""word"":""SÁRGA"",""color"":""yellow"",""congruency"":""con"",""correctResponse"":""m""},{""word"":""ZÖLD"",""color"":""green"",""congruency"":""con"",""correctResponse"":""c""},{""word"":""KÉK"",""color"":""blue"",""congruency"":""con"",""correctResponse"":""n""}]"	672462	672461	670822	670823	670837	672491	
blockLoop	flow.Sequence	7_1	2021-11-27T13:54:22Z	2	"[{""word"":""ZÖLD"",""color"":""green"",""congruency"":""con"",""correctResponse"":""c""},{""word"":""SÁRGA"",""color"":""yellow"",""congruency"":""con"",""correctResponse"":""m""},{""word"":""PIROS"",""color"":""red"",""congruency"":""con"",""correctResponse"":""x""},{""word"":""KÉK"",""color"":""blue"",""congruency"":""con"",""correctResponse"":""n""}]"			NA		39467	completion	NA	1679	NA			"[{""word"":""SÁRGA"",""color"":""blue"",""congruency"":""inc"",""correctResponse"":""n""},{""word"":""PIROS"",""color"":""red"",""congruency"":""con"",""correctResponse"":""x""},{""word"":""KÉK"",""color"":""yellow"",""congruency"":""inc"",""correctResponse"":""m""},{""word"":""PIROS"",""color"":""green"",""congruency"":""inc"",""correctResponse"":""c""},{""word"":""SÁRGA"",""color"":""blue"",""congruency"":""inc"",""correctResponse"":""n""},{""word"":""ZÖLD"",""color"":""red"",""congruency"":""inc"",""correctResponse"":""x""},{""word"":""SÁRGA"",""color"":""yellow"",""congruency"":""con"",""correctResponse"":""m""},{""word"":""ZÖLD"",""color"":""green"",""congruency"":""con"",""correctResponse"":""c""},{""word"":""KÉK"",""color"":""blue"",""congruency"":""con"",""correctResponse"":""n""}]"	672463	672461	632977	632959.0000000001	632994	672491	
	flow.Loop	7_2_0	2021-11-27T13:54:25Z	3	"[{""word"":""ZÖLD"",""color"":""green"",""congruency"":""con"",""correctResponse"":""c""},{""word"":""SÁRGA"",""color"":""yellow"",""congruency"":""con"",""correctResponse"":""m""},{""word"":""PIROS"",""color"":""red"",""congruency"":""con"",""correctResponse"":""x""},{""word"":""KÉK"",""color"":""blue"",""congruency"":""con"",""correctResponse"":""n""}]"			NA		2994	completion	NA	NA	NA			"[{""word"":""SÁRGA"",""color"":""yellow"",""congruency"":""con"",""correctResponse"":""m""},{""word"":""ZÖLD"",""color"":""red"",""congruency"":""inc"",""correctResponse"":""x""},{""word"":""SÁRGA"",""color"":""blue"",""congruency"":""inc"",""correctResponse"":""n""},{""word"":""PIROS"",""color"":""green"",""congruency"":""inc"",""correctResponse"":""c""},{""word"":""SÁRGA"",""color"":""yellow"",""congruency"":""con"",""correctResponse"":""m""},{""word"":""ZÖLD"",""color"":""green"",""congruency"":""con"",""correctResponse"":""c""},{""word"":""KÉK"",""color"":""yellow"",""congruency"":""inc"",""correctResponse"":""m""},{""word"":""PIROS"",""color"":""red"",""congruency"":""con"",""correctResponse"":""x""},{""word"":""KÉK"",""color"":""blue"",""congruency"":""con"",""correctResponse"":""n""}]"	675486	675485	672474	672463	672491	675501	
3_StroopCalibrationTrial	flow.Sequence	7_2_1_0	2021-11-27T13:54:26Z	3	"[{""word"":""ZÖLD"",""color"":""green"",""congruency"":""con"",""correctResponse"":""c""},{""word"":""SÁRGA"",""color"":""yellow"",""congruency"":""con"",""correctResponse"":""m""},{""word"":""PIROS"",""color"":""red"",""congruency"":""con"",""correctResponse"":""x""},{""word"":""KÉK"",""color"":""blue"",""congruency"":""con"",""correctResponse"":""n""}]"	green	con	TRUE	c	857	response	NA	NA	NA	c	keypress(c)	"[{""word"":""SÁRGA"",""color"":""yellow"",""congruency"":""con"",""correctResponse"":""m""},{""word"":""ZÖLD"",""color"":""red"",""congruency"":""inc"",""correctResponse"":""x""},{""word"":""SÁRGA"",""color"":""blue"",""congruency"":""inc"",""correctResponse"":""n""},{""word"":""PIROS"",""color"":""green"",""congruency"":""inc"",""correctResponse"":""c""},{""word"":""SÁRGA"",""color"":""yellow"",""congruency"":""con"",""correctResponse"":""m""},{""word"":""ZÖLD"",""color"":""green"",""congruency"":""con"",""correctResponse"":""c""},{""word"":""KÉK"",""color"":""yellow"",""congruency"":""inc"",""correctResponse"":""m""},{""word"":""PIROS"",""color"":""red"",""congruency"":""con"",""correctResponse"":""x""},{""word"":""KÉK"",""color"":""blue"",""congruency"":""con"",""correctResponse"":""n""}]"	676344	676342	675485	675486	675501	676376	ZÖLD
3_StroopCalibrationTrial	flow.Sequence	7_2_1_1	2021-11-27T13:54:27Z	3	"[{""word"":""ZÖLD"",""color"":""green"",""congruency"":""con"",""correctResponse"":""c""},{""word"":""SÁRGA"",""color"":""yellow"",""congruency"":""con"",""correctResponse"":""m""},{""word"":""PIROS"",""color"":""red"",""congruency"":""con"",""correctResponse"":""x""},{""word"":""KÉK"",""color"":""blue"",""congruency"":""con"",""correctResponse"":""n""}]"	yellow	con	TRUE	m	1010	response	NA	NA	NA	m	keypress(m)	"[{""word"":""SÁRGA"",""color"":""yellow"",""congruency"":""con"",""correctResponse"":""m""},{""word"":""ZÖLD"",""color"":""red"",""congruency"":""inc"",""correctResponse"":""x""},{""word"":""SÁRGA"",""color"":""blue"",""congruency"":""inc"",""correctResponse"":""n""},{""word"":""PIROS"",""color"":""green"",""congruency"":""inc"",""correctResponse"":""c""},{""word"":""SÁRGA"",""color"":""yellow"",""congruency"":""con"",""correctResponse"":""m""},{""word"":""ZÖLD"",""color"":""green"",""congruency"":""con"",""correctResponse"":""c""},{""word"":""KÉK"",""color"":""yellow"",""congruency"":""inc"",""correctResponse"":""m""},{""word"":""PIROS"",""color"":""red"",""congruency"":""con"",""correctResponse"":""x""},{""word"":""KÉK"",""color"":""blue"",""congruency"":""con"",""correctResponse"":""n""}]"	677371	677370	676360	676344	676376	677399	SÁRGA
3_StroopCalibrationTrial	flow.Sequence	7_2_1_2	2021-11-27T13:54:28Z	3	"[{""word"":""ZÖLD"",""color"":""green"",""congruency"":""con"",""correctResponse"":""c""},{""word"":""SÁRGA"",""color"":""yellow"",""congruency"":""con"",""correctResponse"":""m""},{""word"":""PIROS"",""color"":""red"",""congruency"":""con"",""correctResponse"":""x""},{""word"":""KÉK"",""color"":""blue"",""congruency"":""con"",""correctResponse"":""n""}]"	red	con	TRUE	x	767	response	NA	NA	NA	x	keypress(x)	"[{""word"":""SÁRGA"",""color"":""yellow"",""congruency"":""con"",""correctResponse"":""m""},{""word"":""ZÖLD"",""color"":""red"",""congruency"":""inc"",""correctResponse"":""x""},{""word"":""SÁRGA"",""color"":""blue"",""congruency"":""inc"",""correctResponse"":""n""},{""word"":""PIROS"",""color"":""green"",""congruency"":""inc"",""correctResponse"":""c""},{""word"":""SÁRGA"",""color"":""yellow"",""congruency"":""con"",""correctResponse"":""m""},{""word"":""ZÖLD"",""color"":""green"",""congruency"":""con"",""correctResponse"":""c""},{""word"":""KÉK"",""color"":""yellow"",""congruency"":""inc"",""correctResponse"":""m""},{""word"":""PIROS"",""color"":""red"",""congruency"":""con"",""correctResponse"":""x""},{""word"":""KÉK"",""color"":""blue"",""congruency"":""con"",""correctResponse"":""n""}]"	678150	678149	677382	677371	677399	678188	PIROS
3_StroopCalibrationTrial	flow.Sequence	7_2_1_3	2021-11-27T13:54:31Z	3	"[{""word"":""ZÖLD"",""color"":""green"",""congruency"":""con"",""correctResponse"":""c""},{""word"":""SÁRGA"",""color"":""yellow"",""congruency"":""con"",""correctResponse"":""m""},{""word"":""PIROS"",""color"":""red"",""congruency"":""con"",""correctResponse"":""x""},{""word"":""KÉK"",""color"":""blue"",""congruency"":""con"",""correctResponse"":""n""}]"	blue	con	TRUE	n	3400	response	NA	NA	NA	n	keypress(n)	"[{""word"":""SÁRGA"",""color"":""yellow"",""congruency"":""con"",""correctResponse"":""m""},{""word"":""ZÖLD"",""color"":""red"",""congruency"":""inc"",""correctResponse"":""x""},{""word"":""SÁRGA"",""color"":""blue"",""congruency"":""inc"",""correctResponse"":""n""},{""word"":""PIROS"",""color"":""green"",""congruency"":""inc"",""correctResponse"":""c""},{""word"":""SÁRGA"",""color"":""yellow"",""congruency"":""con"",""correctResponse"":""m""},{""word"":""ZÖLD"",""color"":""green"",""congruency"":""con"",""correctResponse"":""c""},{""word"":""KÉK"",""color"":""yellow"",""congruency"":""inc"",""correctResponse"":""m""},{""word"":""PIROS"",""color"":""red"",""congruency"":""con"",""correctResponse"":""x""},{""word"":""KÉK"",""color"":""blue"",""congruency"":""con"",""correctResponse"":""n""}]"	681573	681572	678172	678150	678188	681611	KÉK
	flow.Loop	7_2_1	2021-11-27T13:54:31Z	3	"[{""word"":""ZÖLD"",""color"":""green"",""congruency"":""con"",""correctResponse"":""c""},{""word"":""SÁRGA"",""color"":""yellow"",""congruency"":""con"",""correctResponse"":""m""},{""word"":""PIROS"",""color"":""red"",""congruency"":""con"",""correctResponse"":""x""},{""word"":""KÉK"",""color"":""blue"",""congruency"":""con"",""correctResponse"":""n""}]"			NA		6071	completion	NA	NA	NA			"[{""word"":""SÁRGA"",""color"":""yellow"",""congruency"":""con"",""correctResponse"":""m""},{""word"":""ZÖLD"",""color"":""red"",""congruency"":""inc"",""correctResponse"":""x""},{""word"":""SÁRGA"",""color"":""blue"",""congruency"":""inc"",""correctResponse"":""n""},{""word"":""PIROS"",""color"":""green"",""congruency"":""inc"",""correctResponse"":""c""},{""word"":""SÁRGA"",""color"":""yellow"",""congruency"":""con"",""correctResponse"":""m""},{""word"":""ZÖLD"",""color"":""green"",""congruency"":""con"",""correctResponse"":""c""},{""word"":""KÉK"",""color"":""yellow"",""congruency"":""inc"",""correctResponse"":""m""},{""word"":""PIROS"",""color"":""red"",""congruency"":""con"",""correctResponse"":""x""},{""word"":""KÉK"",""color"":""blue"",""congruency"":""con"",""correctResponse"":""n""}]"	681573	681572	675485	675486	675501	681611	
endCalibrationScreen	html.Screen	7_2_2	2021-11-27T13:54:34Z	3	"[{""word"":""ZÖLD"",""color"":""green"",""congruency"":""con"",""correctResponse"":""c""},{""word"":""SÁRGA"",""color"":""yellow"",""congruency"":""con"",""correctResponse"":""m""},{""word"":""PIROS"",""color"":""red"",""congruency"":""con"",""correctResponse"":""x""},{""word"":""KÉK"",""color"":""blue"",""congruency"":""con"",""correctResponse"":""n""}]"			NA		2674	response	NA	1508	NA	continue	keypress(Space)	"[{""word"":""SÁRGA"",""color"":""yellow"",""congruency"":""con"",""correctResponse"":""m""},{""word"":""ZÖLD"",""color"":""red"",""congruency"":""inc"",""correctResponse"":""x""},{""word"":""SÁRGA"",""color"":""blue"",""congruency"":""inc"",""correctResponse"":""n""},{""word"":""PIROS"",""color"":""green"",""congruency"":""inc"",""correctResponse"":""c""},{""word"":""SÁRGA"",""color"":""yellow"",""congruency"":""con"",""correctResponse"":""m""},{""word"":""ZÖLD"",""color"":""green"",""congruency"":""con"",""correctResponse"":""c""},{""word"":""KÉK"",""color"":""yellow"",""congruency"":""inc"",""correctResponse"":""m""},{""word"":""PIROS"",""color"":""red"",""congruency"":""con"",""correctResponse"":""x""},{""word"":""KÉK"",""color"":""blue"",""congruency"":""con"",""correctResponse"":""n""}]"	684269	684268	681594	681574.0000000001	681611	684299	
	flow.Loop	7_2_3	2021-11-27T13:54:37Z	3	"[{""word"":""ZÖLD"",""color"":""green"",""congruency"":""con"",""correctResponse"":""c""},{""word"":""SÁRGA"",""color"":""yellow"",""congruency"":""con"",""correctResponse"":""m""},{""word"":""PIROS"",""color"":""red"",""congruency"":""con"",""correctResponse"":""x""},{""word"":""KÉK"",""color"":""blue"",""congruency"":""con"",""correctResponse"":""n""}]"			NA		2995	completion	NA	1508	NA			"[{""word"":""SÁRGA"",""color"":""yellow"",""congruency"":""con"",""correctResponse"":""m""},{""word"":""ZÖLD"",""color"":""red"",""congruency"":""inc"",""correctResponse"":""x""},{""word"":""SÁRGA"",""color"":""blue"",""congruency"":""inc"",""correctResponse"":""n""},{""word"":""PIROS"",""color"":""green"",""congruency"":""inc"",""correctResponse"":""c""},{""word"":""SÁRGA"",""color"":""yellow"",""congruency"":""con"",""correctResponse"":""m""},{""word"":""ZÖLD"",""color"":""green"",""congruency"":""con"",""correctResponse"":""c""},{""word"":""KÉK"",""color"":""yellow"",""congruency"":""inc"",""correctResponse"":""m""},{""word"":""PIROS"",""color"":""red"",""congruency"":""con"",""correctResponse"":""x""},{""word"":""KÉK"",""color"":""blue"",""congruency"":""con"",""correctResponse"":""n""}]"	687294	687294	684282	684269	684299	687311	
3_StroopTestTrial	flow.Sequence	7_2_4_0	2021-11-27T13:54:39Z	3	"[{""word"":""ZÖLD"",""color"":""green"",""congruency"":""con"",""correctResponse"":""c""},{""word"":""SÁRGA"",""color"":""yellow"",""congruency"":""con"",""correctResponse"":""m""},{""word"":""PIROS"",""color"":""red"",""congruency"":""con"",""correctResponse"":""x""},{""word"":""KÉK"",""color"":""blue"",""congruency"":""con"",""correctResponse"":""n""}]"	yellow	con	TRUE	m	1741	completion	688421	1508	1110	m		"[{""word"":""SÁRGA"",""color"":""yellow"",""congruency"":""con"",""correctResponse"":""m""},{""word"":""ZÖLD"",""color"":""red"",""congruency"":""inc"",""correctResponse"":""x""},{""word"":""SÁRGA"",""color"":""blue"",""congruency"":""inc"",""correctResponse"":""n""},{""word"":""PIROS"",""color"":""green"",""congruency"":""inc"",""correctResponse"":""c""},{""word"":""SÁRGA"",""color"":""yellow"",""congruency"":""con"",""correctResponse"":""m""},{""word"":""ZÖLD"",""color"":""green"",""congruency"":""con"",""correctResponse"":""c""},{""word"":""KÉK"",""color"":""yellow"",""congruency"":""inc"",""correctResponse"":""m""},{""word"":""PIROS"",""color"":""red"",""congruency"":""con"",""correctResponse"":""x""},{""word"":""KÉK"",""color"":""blue"",""congruency"":""con"",""correctResponse"":""n""}]"	689052	689052	687294	687303	687311	689068	SÁRGA
3_StroopTestTrial	flow.Sequence	7_2_4_1	2021-11-27T13:54:40Z	3	"[{""word"":""ZÖLD"",""color"":""green"",""congruency"":""con"",""correctResponse"":""c""},{""word"":""SÁRGA"",""color"":""yellow"",""congruency"":""con"",""correctResponse"":""m""},{""word"":""PIROS"",""color"":""red"",""congruency"":""con"",""correctResponse"":""x""},{""word"":""KÉK"",""color"":""blue"",""congruency"":""con"",""correctResponse"":""n""}]"	red	inc	NA	x	1741	completion	NA	1508	NA			"[{""word"":""SÁRGA"",""color"":""yellow"",""congruency"":""con"",""correctResponse"":""m""},{""word"":""ZÖLD"",""color"":""red"",""congruency"":""inc"",""correctResponse"":""x""},{""word"":""SÁRGA"",""color"":""blue"",""congruency"":""inc"",""correctResponse"":""n""},{""word"":""PIROS"",""color"":""green"",""congruency"":""inc"",""correctResponse"":""c""},{""word"":""SÁRGA"",""color"":""yellow"",""congruency"":""con"",""correctResponse"":""m""},{""word"":""ZÖLD"",""color"":""green"",""congruency"":""con"",""correctResponse"":""c""},{""word"":""KÉK"",""color"":""yellow"",""congruency"":""inc"",""correctResponse"":""m""},{""word"":""PIROS"",""color"":""red"",""congruency"":""con"",""correctResponse"":""x""},{""word"":""KÉK"",""color"":""blue"",""congruency"":""con"",""correctResponse"":""n""}]"	690809	690809	689052	689052	689068	690825	ZÖLD
3_StroopTestTrial	flow.Sequence	7_2_4_2	2021-11-27T13:54:42Z	3	"[{""word"":""ZÖLD"",""color"":""green"",""congruency"":""con"",""correctResponse"":""c""},{""word"":""SÁRGA"",""color"":""yellow"",""congruency"":""con"",""correctResponse"":""m""},{""word"":""PIROS"",""color"":""red"",""congruency"":""con"",""correctResponse"":""x""},{""word"":""KÉK"",""color"":""blue"",""congruency"":""con"",""correctResponse"":""n""}]"	blue	inc	FALSE	n	1740	completion	690924	1508	99	x		"[{""word"":""SÁRGA"",""color"":""yellow"",""congruency"":""con"",""correctResponse"":""m""},{""word"":""ZÖLD"",""color"":""red"",""congruency"":""inc"",""correctResponse"":""x""},{""word"":""SÁRGA"",""color"":""blue"",""congruency"":""inc"",""correctResponse"":""n""},{""word"":""PIROS"",""color"":""green"",""congruency"":""inc"",""correctResponse"":""c""},{""word"":""SÁRGA"",""color"":""yellow"",""congruency"":""con"",""correctResponse"":""m""},{""word"":""ZÖLD"",""color"":""green"",""congruency"":""con"",""correctResponse"":""c""},{""word"":""KÉK"",""color"":""yellow"",""congruency"":""inc"",""correctResponse"":""m""},{""word"":""PIROS"",""color"":""red"",""congruency"":""con"",""correctResponse"":""x""},{""word"":""KÉK"",""color"":""blue"",""congruency"":""con"",""correctResponse"":""n""}]"	692566	692565	690809	690809	690825	692583	SÁRGA
3_StroopTestTrial	flow.Sequence	7_2_4_3	2021-11-27T13:54:44Z	3	"[{""word"":""ZÖLD"",""color"":""green"",""congruency"":""con"",""correctResponse"":""c""},{""word"":""SÁRGA"",""color"":""yellow"",""congruency"":""con"",""correctResponse"":""m""},{""word"":""PIROS"",""color"":""red"",""congruency"":""con"",""correctResponse"":""x""},{""word"":""KÉK"",""color"":""blue"",""congruency"":""con"",""correctResponse"":""n""}]"	green	inc	NA	c	1740	completion	NA	1508	NA			"[{""word"":""SÁRGA"",""color"":""yellow"",""congruency"":""con"",""correctResponse"":""m""},{""word"":""ZÖLD"",""color"":""red"",""congruency"":""inc"",""correctResponse"":""x""},{""word"":""SÁRGA"",""color"":""blue"",""congruency"":""inc"",""correctResponse"":""n""},{""word"":""PIROS"",""color"":""green"",""congruency"":""inc"",""correctResponse"":""c""},{""word"":""SÁRGA"",""color"":""yellow"",""congruency"":""con"",""correctResponse"":""m""},{""word"":""ZÖLD"",""color"":""green"",""congruency"":""con"",""correctResponse"":""c""},{""word"":""KÉK"",""color"":""yellow"",""congruency"":""inc"",""correctResponse"":""m""},{""word"":""PIROS"",""color"":""red"",""congruency"":""con"",""correctResponse"":""x""},{""word"":""KÉK"",""color"":""blue"",""congruency"":""con"",""correctResponse"":""n""}]"	694323	694323	692565	692566	692583	694339	PIROS
3_StroopTestTrial	flow.Sequence	7_2_4_4	2021-11-27T13:54:46Z	3	"[{""word"":""ZÖLD"",""color"":""green"",""congruency"":""con"",""correctResponse"":""c""},{""word"":""SÁRGA"",""color"":""yellow"",""congruency"":""con"",""correctResponse"":""m""},{""word"":""PIROS"",""color"":""red"",""congruency"":""con"",""correctResponse"":""x""},{""word"":""KÉK"",""color"":""blue"",""congruency"":""con"",""correctResponse"":""n""}]"	yellow	con	NA	m	1741	completion	NA	1508	NA			"[{""word"":""SÁRGA"",""color"":""yellow"",""congruency"":""con"",""correctResponse"":""m""},{""word"":""ZÖLD"",""color"":""red"",""congruency"":""inc"",""correctResponse"":""x""},{""word"":""SÁRGA"",""color"":""blue"",""congruency"":""inc"",""correctResponse"":""n""},{""word"":""PIROS"",""color"":""green"",""congruency"":""inc"",""correctResponse"":""c""},{""word"":""SÁRGA"",""color"":""yellow"",""congruency"":""con"",""correctResponse"":""m""},{""word"":""ZÖLD"",""color"":""green"",""congruency"":""con"",""correctResponse"":""c""},{""word"":""KÉK"",""color"":""yellow"",""congruency"":""inc"",""correctResponse"":""m""},{""word"":""PIROS"",""color"":""red"",""congruency"":""con"",""correctResponse"":""x""},{""word"":""KÉK"",""color"":""blue"",""congruency"":""con"",""correctResponse"":""n""}]"	696081	696080	694323	694323	694339	696097	SÁRGA
3_StroopTestTrial	flow.Sequence	7_2_4_5	2021-11-27T13:54:48Z	3	"[{""word"":""ZÖLD"",""color"":""green"",""congruency"":""con"",""correctResponse"":""c""},{""word"":""SÁRGA"",""color"":""yellow"",""congruency"":""con"",""correctResponse"":""m""},{""word"":""PIROS"",""color"":""red"",""congruency"":""con"",""correctResponse"":""x""},{""word"":""KÉK"",""color"":""blue"",""congruency"":""con"",""correctResponse"":""n""}]"	green	con	FALSE	c	1742	completion	697213	1508	1116	x		"[{""word"":""SÁRGA"",""color"":""yellow"",""congruency"":""con"",""correctResponse"":""m""},{""word"":""ZÖLD"",""color"":""red"",""congruency"":""inc"",""correctResponse"":""x""},{""word"":""SÁRGA"",""color"":""blue"",""congruency"":""inc"",""correctResponse"":""n""},{""word"":""PIROS"",""color"":""green"",""congruency"":""inc"",""correctResponse"":""c""},{""word"":""SÁRGA"",""color"":""yellow"",""congruency"":""con"",""correctResponse"":""m""},{""word"":""ZÖLD"",""color"":""green"",""congruency"":""con"",""correctResponse"":""c""},{""word"":""KÉK"",""color"":""yellow"",""congruency"":""inc"",""correctResponse"":""m""},{""word"":""PIROS"",""color"":""red"",""congruency"":""con"",""correctResponse"":""x""},{""word"":""KÉK"",""color"":""blue"",""congruency"":""con"",""correctResponse"":""n""}]"	697839	697839	696080	696081	696097	697856	ZÖLD
3_StroopTestTrial	flow.Sequence	7_2_4_6	2021-11-27T13:54:49Z	3	"[{""word"":""ZÖLD"",""color"":""green"",""congruency"":""con"",""correctResponse"":""c""},{""word"":""SÁRGA"",""color"":""yellow"",""congruency"":""con"",""correctResponse"":""m""},{""word"":""PIROS"",""color"":""red"",""congruency"":""con"",""correctResponse"":""x""},{""word"":""KÉK"",""color"":""blue"",""congruency"":""con"",""correctResponse"":""n""}]"	yellow	inc	TRUE	m	1740	completion	699328	1508	1472	m		"[{""word"":""SÁRGA"",""color"":""yellow"",""congruency"":""con"",""correctResponse"":""m""},{""word"":""ZÖLD"",""color"":""red"",""congruency"":""inc"",""correctResponse"":""x""},{""word"":""SÁRGA"",""color"":""blue"",""congruency"":""inc"",""correctResponse"":""n""},{""word"":""PIROS"",""color"":""green"",""congruency"":""inc"",""correctResponse"":""c""},{""word"":""SÁRGA"",""color"":""yellow"",""congruency"":""con"",""correctResponse"":""m""},{""word"":""ZÖLD"",""color"":""green"",""congruency"":""con"",""correctResponse"":""c""},{""word"":""KÉK"",""color"":""yellow"",""congruency"":""inc"",""correctResponse"":""m""},{""word"":""PIROS"",""color"":""red"",""congruency"":""con"",""correctResponse"":""x""},{""word"":""KÉK"",""color"":""blue"",""congruency"":""con"",""correctResponse"":""n""}]"	699597	699596	697839	697840	697856	699612	KÉK
3_StroopTestTrial	flow.Sequence	7_2_4_7	2021-11-27T13:54:51Z	3	"[{""word"":""ZÖLD"",""color"":""green"",""congruency"":""con"",""correctResponse"":""c""},{""word"":""SÁRGA"",""color"":""yellow"",""congruency"":""con"",""correctResponse"":""m""},{""word"":""PIROS"",""color"":""red"",""congruency"":""con"",""correctResponse"":""x""},{""word"":""KÉK"",""color"":""blue"",""congruency"":""con"",""correctResponse"":""n""}]"	red	con	TRUE	x	1741	completion	700457	1508	845	x		"[{""word"":""SÁRGA"",""color"":""yellow"",""congruency"":""con"",""correctResponse"":""m""},{""word"":""ZÖLD"",""color"":""red"",""congruency"":""inc"",""correctResponse"":""x""},{""word"":""SÁRGA"",""color"":""blue"",""congruency"":""inc"",""correctResponse"":""n""},{""word"":""PIROS"",""color"":""green"",""congruency"":""inc"",""correctResponse"":""c""},{""word"":""SÁRGA"",""color"":""yellow"",""congruency"":""con"",""correctResponse"":""m""},{""word"":""ZÖLD"",""color"":""green"",""congruency"":""con"",""correctResponse"":""c""},{""word"":""KÉK"",""color"":""yellow"",""congruency"":""inc"",""correctResponse"":""m""},{""word"":""PIROS"",""color"":""red"",""congruency"":""con"",""correctResponse"":""x""},{""word"":""KÉK"",""color"":""blue"",""congruency"":""con"",""correctResponse"":""n""}]"	701353.0000000001	701353	699596	699597	699612	701369	PIROS
3_StroopTestTrial	flow.Sequence	7_2_4_8	2021-11-27T13:54:53Z	3	"[{""word"":""ZÖLD"",""color"":""green"",""congruency"":""con"",""correctResponse"":""c""},{""word"":""SÁRGA"",""color"":""yellow"",""congruency"":""con"",""correctResponse"":""m""},{""word"":""PIROS"",""color"":""red"",""congruency"":""con"",""correctResponse"":""x""},{""word"":""KÉK"",""color"":""blue"",""congruency"":""con"",""correctResponse"":""n""}]"	blue	con	TRUE	n	1741	completion	702527	1508	1158	n		"[{""word"":""SÁRGA"",""color"":""yellow"",""congruency"":""con"",""correctResponse"":""m""},{""word"":""ZÖLD"",""color"":""red"",""congruency"":""inc"",""correctResponse"":""x""},{""word"":""SÁRGA"",""color"":""blue"",""congruency"":""inc"",""correctResponse"":""n""},{""word"":""PIROS"",""color"":""green"",""congruency"":""inc"",""correctResponse"":""c""},{""word"":""SÁRGA"",""color"":""yellow"",""congruency"":""con"",""correctResponse"":""m""},{""word"":""ZÖLD"",""color"":""green"",""congruency"":""con"",""correctResponse"":""c""},{""word"":""KÉK"",""color"":""yellow"",""congruency"":""inc"",""correctResponse"":""m""},{""word"":""PIROS"",""color"":""red"",""congruency"":""con"",""correctResponse"":""x""},{""word"":""KÉK"",""color"":""blue"",""congruency"":""con"",""correctResponse"":""n""}]"	703110	703110	701353	701354	701369	703127	KÉK
	flow.Loop	7_2_4	2021-11-27T13:54:53Z	3	"[{""word"":""ZÖLD"",""color"":""green"",""congruency"":""con"",""correctResponse"":""c""},{""word"":""SÁRGA"",""color"":""yellow"",""congruency"":""con"",""correctResponse"":""m""},{""word"":""PIROS"",""color"":""red"",""congruency"":""con"",""correctResponse"":""x""},{""word"":""KÉK"",""color"":""blue"",""congruency"":""con"",""correctResponse"":""n""}]"			NA		15799	completion	NA	1508	NA			"[{""word"":""SÁRGA"",""color"":""yellow"",""congruency"":""con"",""correctResponse"":""m""},{""word"":""ZÖLD"",""color"":""red"",""congruency"":""inc"",""correctResponse"":""x""},{""word"":""SÁRGA"",""color"":""blue"",""congruency"":""inc"",""correctResponse"":""n""},{""word"":""PIROS"",""color"":""green"",""congruency"":""inc"",""correctResponse"":""c""},{""word"":""SÁRGA"",""color"":""yellow"",""congruency"":""con"",""correctResponse"":""m""},{""word"":""ZÖLD"",""color"":""green"",""congruency"":""con"",""correctResponse"":""c""},{""word"":""KÉK"",""color"":""yellow"",""congruency"":""inc"",""correctResponse"":""m""},{""word"":""PIROS"",""color"":""red"",""congruency"":""con"",""correctResponse"":""x""},{""word"":""KÉK"",""color"":""blue"",""congruency"":""con"",""correctResponse"":""n""}]"	703111	703110	687294	687303	687311	703127	
betweenBlockScreen	html.Screen	7_2_5	2021-11-27T13:55:01Z	3	"[{""word"":""ZÖLD"",""color"":""green"",""congruency"":""con"",""correctResponse"":""c""},{""word"":""SÁRGA"",""color"":""yellow"",""congruency"":""con"",""correctResponse"":""m""},{""word"":""PIROS"",""color"":""red"",""congruency"":""con"",""correctResponse"":""x""},{""word"":""KÉK"",""color"":""blue"",""congruency"":""con"",""correctResponse"":""n""}]"			NA		7965	response	NA	1508	NA	continue	keypress(Space)	"[{""word"":""SÁRGA"",""color"":""yellow"",""congruency"":""con"",""correctResponse"":""m""},{""word"":""ZÖLD"",""color"":""red"",""congruency"":""inc"",""correctResponse"":""x""},{""word"":""SÁRGA"",""color"":""blue"",""congruency"":""inc"",""correctResponse"":""n""},{""word"":""PIROS"",""color"":""green"",""congruency"":""inc"",""correctResponse"":""c""},{""word"":""SÁRGA"",""color"":""yellow"",""congruency"":""con"",""correctResponse"":""m""},{""word"":""ZÖLD"",""color"":""green"",""congruency"":""con"",""correctResponse"":""c""},{""word"":""KÉK"",""color"":""yellow"",""congruency"":""inc"",""correctResponse"":""m""},{""word"":""PIROS"",""color"":""red"",""congruency"":""con"",""correctResponse"":""x""},{""word"":""KÉK"",""color"":""blue"",""congruency"":""con"",""correctResponse"":""n""}]"	711077	711075	703110	703111	703127	711118	
blockLoop	flow.Sequence	7_2	2021-11-27T13:55:01Z	3	"[{""word"":""ZÖLD"",""color"":""green"",""congruency"":""con"",""correctResponse"":""c""},{""word"":""SÁRGA"",""color"":""yellow"",""congruency"":""con"",""correctResponse"":""m""},{""word"":""PIROS"",""color"":""red"",""congruency"":""con"",""correctResponse"":""x""},{""word"":""KÉK"",""color"":""blue"",""congruency"":""con"",""correctResponse"":""n""}]"			NA		38584	completion	NA	1508	NA			"[{""word"":""SÁRGA"",""color"":""yellow"",""congruency"":""con"",""correctResponse"":""m""},{""word"":""ZÖLD"",""color"":""red"",""congruency"":""inc"",""correctResponse"":""x""},{""word"":""SÁRGA"",""color"":""blue"",""congruency"":""inc"",""correctResponse"":""n""},{""word"":""PIROS"",""color"":""green"",""congruency"":""inc"",""correctResponse"":""c""},{""word"":""SÁRGA"",""color"":""yellow"",""congruency"":""con"",""correctResponse"":""m""},{""word"":""ZÖLD"",""color"":""green"",""congruency"":""con"",""correctResponse"":""c""},{""word"":""KÉK"",""color"":""yellow"",""congruency"":""inc"",""correctResponse"":""m""},{""word"":""PIROS"",""color"":""red"",""congruency"":""con"",""correctResponse"":""x""},{""word"":""KÉK"",""color"":""blue"",""congruency"":""con"",""correctResponse"":""n""}]"	711077	711075	672474	672463	672491	711118	
	flow.Loop	7_3_0	2021-11-27T13:55:04Z	4	"[{""word"":""ZÖLD"",""color"":""green"",""congruency"":""con"",""correctResponse"":""c""},{""word"":""SÁRGA"",""color"":""yellow"",""congruency"":""con"",""correctResponse"":""m""},{""word"":""PIROS"",""color"":""red"",""congruency"":""con"",""correctResponse"":""x""},{""word"":""KÉK"",""color"":""blue"",""congruency"":""con"",""correctResponse"":""n""}]"			NA		2998	completion	NA	NA	NA			"[{""word"":""KÉK"",""color"":""yellow"",""congruency"":""inc"",""correctResponse"":""m""},{""word"":""ZÖLD"",""color"":""red"",""congruency"":""inc"",""correctResponse"":""x""},{""word"":""SÁRGA"",""color"":""yellow"",""congruency"":""con"",""correctResponse"":""m""},{""word"":""PIROS"",""color"":""red"",""congruency"":""con"",""correctResponse"":""x""},{""word"":""SÁRGA"",""color"":""blue"",""congruency"":""inc"",""correctResponse"":""n""},{""word"":""ZÖLD"",""color"":""green"",""congruency"":""con"",""correctResponse"":""c""},{""word"":""KÉK"",""color"":""yellow"",""congruency"":""inc"",""correctResponse"":""m""},{""word"":""PIROS"",""color"":""green"",""congruency"":""inc"",""correctResponse"":""c""},{""word"":""KÉK"",""color"":""blue"",""congruency"":""con"",""correctResponse"":""n""}]"	714116	714116	711102	711077	711118	714134	
4_StroopCalibrationTrial	flow.Sequence	7_3_1_0	2021-11-27T13:55:05Z	4	"[{""word"":""ZÖLD"",""color"":""green"",""congruency"":""con"",""correctResponse"":""c""},{""word"":""SÁRGA"",""color"":""yellow"",""congruency"":""con"",""correctResponse"":""m""},{""word"":""PIROS"",""color"":""red"",""congruency"":""con"",""correctResponse"":""x""},{""word"":""KÉK"",""color"":""blue"",""congruency"":""con"",""correctResponse"":""n""}]"	green	con	TRUE	c	763	response	NA	NA	NA	c	keypress(c)	"[{""word"":""KÉK"",""color"":""yellow"",""congruency"":""inc"",""correctResponse"":""m""},{""word"":""ZÖLD"",""color"":""red"",""congruency"":""inc"",""correctResponse"":""x""},{""word"":""SÁRGA"",""color"":""yellow"",""congruency"":""con"",""correctResponse"":""m""},{""word"":""PIROS"",""color"":""red"",""congruency"":""con"",""correctResponse"":""x""},{""word"":""SÁRGA"",""color"":""blue"",""congruency"":""inc"",""correctResponse"":""n""},{""word"":""ZÖLD"",""color"":""green"",""congruency"":""con"",""correctResponse"":""c""},{""word"":""KÉK"",""color"":""yellow"",""congruency"":""inc"",""correctResponse"":""m""},{""word"":""PIROS"",""color"":""green"",""congruency"":""inc"",""correctResponse"":""c""},{""word"":""KÉK"",""color"":""blue"",""congruency"":""con"",""correctResponse"":""n""}]"	714880	714879	714116	714117	714134	714908	ZÖLD
4_StroopCalibrationTrial	flow.Sequence	7_3_1_1	2021-11-27T13:55:06Z	4	"[{""word"":""ZÖLD"",""color"":""green"",""congruency"":""con"",""correctResponse"":""c""},{""word"":""SÁRGA"",""color"":""yellow"",""congruency"":""con"",""correctResponse"":""m""},{""word"":""PIROS"",""color"":""red"",""congruency"":""con"",""correctResponse"":""x""},{""word"":""KÉK"",""color"":""blue"",""congruency"":""con"",""correctResponse"":""n""}]"	yellow	con	TRUE	m	956	response	NA	NA	NA	m	keypress(m)	"[{""word"":""KÉK"",""color"":""yellow"",""congruency"":""inc"",""correctResponse"":""m""},{""word"":""ZÖLD"",""color"":""red"",""congruency"":""inc"",""correctResponse"":""x""},{""word"":""SÁRGA"",""color"":""yellow"",""congruency"":""con"",""correctResponse"":""m""},{""word"":""PIROS"",""color"":""red"",""congruency"":""con"",""correctResponse"":""x""},{""word"":""SÁRGA"",""color"":""blue"",""congruency"":""inc"",""correctResponse"":""n""},{""word"":""ZÖLD"",""color"":""green"",""congruency"":""con"",""correctResponse"":""c""},{""word"":""KÉK"",""color"":""yellow"",""congruency"":""inc"",""correctResponse"":""m""},{""word"":""PIROS"",""color"":""green"",""congruency"":""inc"",""correctResponse"":""c""},{""word"":""KÉK"",""color"":""blue"",""congruency"":""con"",""correctResponse"":""n""}]"	715848.0000000001	715847	714891	714880	714908	715881	SÁRGA
4_StroopCalibrationTrial	flow.Sequence	7_3_1_2	2021-11-27T13:55:06Z	4	"[{""word"":""ZÖLD"",""color"":""green"",""congruency"":""con"",""correctResponse"":""c""},{""word"":""SÁRGA"",""color"":""yellow"",""congruency"":""con"",""correctResponse"":""m""},{""word"":""PIROS"",""color"":""red"",""congruency"":""con"",""correctResponse"":""x""},{""word"":""KÉK"",""color"":""blue"",""congruency"":""con"",""correctResponse"":""n""}]"	red	con	TRUE	x	884	response	NA	NA	NA	x	keypress(x)	"[{""word"":""KÉK"",""color"":""yellow"",""congruency"":""inc"",""correctResponse"":""m""},{""word"":""ZÖLD"",""color"":""red"",""congruency"":""inc"",""correctResponse"":""x""},{""word"":""SÁRGA"",""color"":""yellow"",""congruency"":""con"",""correctResponse"":""m""},{""word"":""PIROS"",""color"":""red"",""congruency"":""con"",""correctResponse"":""x""},{""word"":""SÁRGA"",""color"":""blue"",""congruency"":""inc"",""correctResponse"":""n""},{""word"":""ZÖLD"",""color"":""green"",""congruency"":""con"",""correctResponse"":""c""},{""word"":""KÉK"",""color"":""yellow"",""congruency"":""inc"",""correctResponse"":""m""},{""word"":""PIROS"",""color"":""green"",""congruency"":""inc"",""correctResponse"":""c""},{""word"":""KÉK"",""color"":""blue"",""congruency"":""con"",""correctResponse"":""n""}]"	716749	716748	715864	715848.0000000001	715881	716786	PIROS
4_StroopCalibrationTrial	flow.Sequence	7_3_1_3	2021-11-27T13:55:07Z	4	"[{""word"":""ZÖLD"",""color"":""green"",""congruency"":""con"",""correctResponse"":""c""},{""word"":""SÁRGA"",""color"":""yellow"",""congruency"":""con"",""correctResponse"":""m""},{""word"":""PIROS"",""color"":""red"",""congruency"":""con"",""correctResponse"":""x""},{""word"":""KÉK"",""color"":""blue"",""congruency"":""con"",""correctResponse"":""n""}]"	blue	con	FALSE	n	990	response	NA	NA	NA	m	keypress(m)	"[{""word"":""KÉK"",""color"":""yellow"",""congruency"":""inc"",""correctResponse"":""m""},{""word"":""ZÖLD"",""color"":""red"",""congruency"":""inc"",""correctResponse"":""x""},{""word"":""SÁRGA"",""color"":""yellow"",""congruency"":""con"",""correctResponse"":""m""},{""word"":""PIROS"",""color"":""red"",""congruency"":""con"",""correctResponse"":""x""},{""word"":""SÁRGA"",""color"":""blue"",""congruency"":""inc"",""correctResponse"":""n""},{""word"":""ZÖLD"",""color"":""green"",""congruency"":""con"",""correctResponse"":""c""},{""word"":""KÉK"",""color"":""yellow"",""congruency"":""inc"",""correctResponse"":""m""},{""word"":""PIROS"",""color"":""green"",""congruency"":""inc"",""correctResponse"":""c""},{""word"":""KÉK"",""color"":""blue"",""congruency"":""con"",""correctResponse"":""n""}]"	717761	717760	716770	716750	716786	717792	KÉK
	flow.Loop	7_3_1	2021-11-27T13:55:07Z	4	"[{""word"":""ZÖLD"",""color"":""green"",""congruency"":""con"",""correctResponse"":""c""},{""word"":""SÁRGA"",""color"":""yellow"",""congruency"":""con"",""correctResponse"":""m""},{""word"":""PIROS"",""color"":""red"",""congruency"":""con"",""correctResponse"":""x""},{""word"":""KÉK"",""color"":""blue"",""congruency"":""con"",""correctResponse"":""n""}]"			NA		3626	completion	NA	NA	NA			"[{""word"":""KÉK"",""color"":""yellow"",""congruency"":""inc"",""correctResponse"":""m""},{""word"":""ZÖLD"",""color"":""red"",""congruency"":""inc"",""correctResponse"":""x""},{""word"":""SÁRGA"",""color"":""yellow"",""congruency"":""con"",""correctResponse"":""m""},{""word"":""PIROS"",""color"":""red"",""congruency"":""con"",""correctResponse"":""x""},{""word"":""SÁRGA"",""color"":""blue"",""congruency"":""inc"",""correctResponse"":""n""},{""word"":""ZÖLD"",""color"":""green"",""congruency"":""con"",""correctResponse"":""c""},{""word"":""KÉK"",""color"":""yellow"",""congruency"":""inc"",""correctResponse"":""m""},{""word"":""PIROS"",""color"":""green"",""congruency"":""inc"",""correctResponse"":""c""},{""word"":""KÉK"",""color"":""blue"",""congruency"":""con"",""correctResponse"":""n""}]"	717761	717760	714116	714117	714134	717792	
endCalibrationScreen	html.Screen	7_3_2	2021-11-27T13:55:18Z	4	"[{""word"":""ZÖLD"",""color"":""green"",""congruency"":""con"",""correctResponse"":""c""},{""word"":""SÁRGA"",""color"":""yellow"",""congruency"":""con"",""correctResponse"":""m""},{""word"":""PIROS"",""color"":""red"",""congruency"":""con"",""correctResponse"":""x""},{""word"":""KÉK"",""color"":""blue"",""congruency"":""con"",""correctResponse"":""n""}]"			NA		10914	response	NA	867	NA	continue	keypress(Space)	"[{""word"":""KÉK"",""color"":""yellow"",""congruency"":""inc"",""correctResponse"":""m""},{""word"":""ZÖLD"",""color"":""red"",""congruency"":""inc"",""correctResponse"":""x""},{""word"":""SÁRGA"",""color"":""yellow"",""congruency"":""con"",""correctResponse"":""m""},{""word"":""PIROS"",""color"":""red"",""congruency"":""con"",""correctResponse"":""x""},{""word"":""SÁRGA"",""color"":""blue"",""congruency"":""inc"",""correctResponse"":""n""},{""word"":""ZÖLD"",""color"":""green"",""congruency"":""con"",""correctResponse"":""c""},{""word"":""KÉK"",""color"":""yellow"",""congruency"":""inc"",""correctResponse"":""m""},{""word"":""PIROS"",""color"":""green"",""congruency"":""inc"",""correctResponse"":""c""},{""word"":""KÉK"",""color"":""blue"",""congruency"":""con"",""correctResponse"":""n""}]"	728692	728690	717776	717762	717792	728735	
	flow.Loop	7_3_3	2021-11-27T13:55:21Z	4	"[{""word"":""ZÖLD"",""color"":""green"",""congruency"":""con"",""correctResponse"":""c""},{""word"":""SÁRGA"",""color"":""yellow"",""congruency"":""con"",""correctResponse"":""m""},{""word"":""PIROS"",""color"":""red"",""congruency"":""con"",""correctResponse"":""x""},{""word"":""KÉK"",""color"":""blue"",""congruency"":""con"",""correctResponse"":""n""}]"			NA		2985	completion	NA	867	NA			"[{""word"":""KÉK"",""color"":""yellow"",""congruency"":""inc"",""correctResponse"":""m""},{""word"":""ZÖLD"",""color"":""red"",""congruency"":""inc"",""correctResponse"":""x""},{""word"":""SÁRGA"",""color"":""yellow"",""congruency"":""con"",""correctResponse"":""m""},{""word"":""PIROS"",""color"":""red"",""congruency"":""con"",""correctResponse"":""x""},{""word"":""SÁRGA"",""color"":""blue"",""congruency"":""inc"",""correctResponse"":""n""},{""word"":""ZÖLD"",""color"":""green"",""congruency"":""con"",""correctResponse"":""c""},{""word"":""KÉK"",""color"":""yellow"",""congruency"":""inc"",""correctResponse"":""m""},{""word"":""PIROS"",""color"":""green"",""congruency"":""inc"",""correctResponse"":""c""},{""word"":""KÉK"",""color"":""blue"",""congruency"":""con"",""correctResponse"":""n""}]"	731720	731720	728718	728692	728735	731736	
4_StroopTestTrial	flow.Sequence	7_3_4_0	2021-11-27T13:55:23Z	4	"[{""word"":""ZÖLD"",""color"":""green"",""congruency"":""con"",""correctResponse"":""c""},{""word"":""SÁRGA"",""color"":""yellow"",""congruency"":""con"",""correctResponse"":""m""},{""word"":""PIROS"",""color"":""red"",""congruency"":""con"",""correctResponse"":""x""},{""word"":""KÉK"",""color"":""blue"",""congruency"":""con"",""correctResponse"":""n""}]"	yellow	inc	FALSE	m	1107	completion	732511	867	775	c		"[{""word"":""KÉK"",""color"":""yellow"",""congruency"":""inc"",""correctResponse"":""m""},{""word"":""ZÖLD"",""color"":""red"",""congruency"":""inc"",""correctResponse"":""x""},{""word"":""SÁRGA"",""color"":""yellow"",""congruency"":""con"",""correctResponse"":""m""},{""word"":""PIROS"",""color"":""red"",""congruency"":""con"",""correctResponse"":""x""},{""word"":""SÁRGA"",""color"":""blue"",""congruency"":""inc"",""correctResponse"":""n""},{""word"":""ZÖLD"",""color"":""green"",""congruency"":""con"",""correctResponse"":""c""},{""word"":""KÉK"",""color"":""yellow"",""congruency"":""inc"",""correctResponse"":""m""},{""word"":""PIROS"",""color"":""green"",""congruency"":""inc"",""correctResponse"":""c""},{""word"":""KÉK"",""color"":""blue"",""congruency"":""con"",""correctResponse"":""n""}]"	732843	732843	731720	731728.0000000001	731736	732861	KÉK
4_StroopTestTrial	flow.Sequence	7_3_4_1	2021-11-27T13:55:24Z	4	"[{""word"":""ZÖLD"",""color"":""green"",""congruency"":""con"",""correctResponse"":""c""},{""word"":""SÁRGA"",""color"":""yellow"",""congruency"":""con"",""correctResponse"":""m""},{""word"":""PIROS"",""color"":""red"",""congruency"":""con"",""correctResponse"":""x""},{""word"":""KÉK"",""color"":""blue"",""congruency"":""con"",""correctResponse"":""n""}]"	red	inc	NA	x	1105	completion	NA	867	NA			"[{""word"":""KÉK"",""color"":""yellow"",""congruency"":""inc"",""correctResponse"":""m""},{""word"":""ZÖLD"",""color"":""red"",""congruency"":""inc"",""correctResponse"":""x""},{""word"":""SÁRGA"",""color"":""yellow"",""congruency"":""con"",""correctResponse"":""m""},{""word"":""PIROS"",""color"":""red"",""congruency"":""con"",""correctResponse"":""x""},{""word"":""SÁRGA"",""color"":""blue"",""congruency"":""inc"",""correctResponse"":""n""},{""word"":""ZÖLD"",""color"":""green"",""congruency"":""con"",""correctResponse"":""c""},{""word"":""KÉK"",""color"":""yellow"",""congruency"":""inc"",""correctResponse"":""m""},{""word"":""PIROS"",""color"":""green"",""congruency"":""inc"",""correctResponse"":""c""},{""word"":""KÉK"",""color"":""blue"",""congruency"":""con"",""correctResponse"":""n""}]"	733967	733966	732843	732844	732861	733984	ZÖLD
4_StroopTestTrial	flow.Sequence	7_3_4_2	2021-11-27T13:55:25Z	4	"[{""word"":""ZÖLD"",""color"":""green"",""congruency"":""con"",""correctResponse"":""c""},{""word"":""SÁRGA"",""color"":""yellow"",""congruency"":""con"",""correctResponse"":""m""},{""word"":""PIROS"",""color"":""red"",""congruency"":""con"",""correctResponse"":""x""},{""word"":""KÉK"",""color"":""blue"",""congruency"":""con"",""correctResponse"":""n""}]"	yellow	con	NA	m	1106	completion	NA	867	NA			"[{""word"":""KÉK"",""color"":""yellow"",""congruency"":""inc"",""correctResponse"":""m""},{""word"":""ZÖLD"",""color"":""red"",""congruency"":""inc"",""correctResponse"":""x""},{""word"":""SÁRGA"",""color"":""yellow"",""congruency"":""con"",""correctResponse"":""m""},{""word"":""PIROS"",""color"":""red"",""congruency"":""con"",""correctResponse"":""x""},{""word"":""SÁRGA"",""color"":""blue"",""congruency"":""inc"",""correctResponse"":""n""},{""word"":""ZÖLD"",""color"":""green"",""congruency"":""con"",""correctResponse"":""c""},{""word"":""KÉK"",""color"":""yellow"",""congruency"":""inc"",""correctResponse"":""m""},{""word"":""PIROS"",""color"":""green"",""congruency"":""inc"",""correctResponse"":""c""},{""word"":""KÉK"",""color"":""blue"",""congruency"":""con"",""correctResponse"":""n""}]"	735090	735090	733966	733967	733984	735107	SÁRGA
4_StroopTestTrial	flow.Sequence	7_3_4_3	2021-11-27T13:55:26Z	4	"[{""word"":""ZÖLD"",""color"":""green"",""congruency"":""con"",""correctResponse"":""c""},{""word"":""SÁRGA"",""color"":""yellow"",""congruency"":""con"",""correctResponse"":""m""},{""word"":""PIROS"",""color"":""red"",""congruency"":""con"",""correctResponse"":""x""},{""word"":""KÉK"",""color"":""blue"",""congruency"":""con"",""correctResponse"":""n""}]"	red	con	NA	x	1106	completion	NA	867	NA			"[{""word"":""KÉK"",""color"":""yellow"",""congruency"":""inc"",""correctResponse"":""m""},{""word"":""ZÖLD"",""color"":""red"",""congruency"":""inc"",""correctResponse"":""x""},{""word"":""SÁRGA"",""color"":""yellow"",""congruency"":""con"",""correctResponse"":""m""},{""word"":""PIROS"",""color"":""red"",""congruency"":""con"",""correctResponse"":""x""},{""word"":""SÁRGA"",""color"":""blue"",""congruency"":""inc"",""correctResponse"":""n""},{""word"":""ZÖLD"",""color"":""green"",""congruency"":""con"",""correctResponse"":""c""},{""word"":""KÉK"",""color"":""yellow"",""congruency"":""inc"",""correctResponse"":""m""},{""word"":""PIROS"",""color"":""green"",""congruency"":""inc"",""correctResponse"":""c""},{""word"":""KÉK"",""color"":""blue"",""congruency"":""con"",""correctResponse"":""n""}]"	736213	736213	735090	735090	735107	736230	PIROS
4_StroopTestTrial	flow.Sequence	7_3_4_4	2021-11-27T13:55:27Z	4	"[{""word"":""ZÖLD"",""color"":""green"",""congruency"":""con"",""correctResponse"":""c""},{""word"":""SÁRGA"",""color"":""yellow"",""congruency"":""con"",""correctResponse"":""m""},{""word"":""PIROS"",""color"":""red"",""congruency"":""con"",""correctResponse"":""x""},{""word"":""KÉK"",""color"":""blue"",""congruency"":""con"",""correctResponse"":""n""}]"	blue	inc	NA	n	1106	completion	NA	867	NA			"[{""word"":""KÉK"",""color"":""yellow"",""congruency"":""inc"",""correctResponse"":""m""},{""word"":""ZÖLD"",""color"":""red"",""congruency"":""inc"",""correctResponse"":""x""},{""word"":""SÁRGA"",""color"":""yellow"",""congruency"":""con"",""correctResponse"":""m""},{""word"":""PIROS"",""color"":""red"",""congruency"":""con"",""correctResponse"":""x""},{""word"":""SÁRGA"",""color"":""blue"",""congruency"":""inc"",""correctResponse"":""n""},{""word"":""ZÖLD"",""color"":""green"",""congruency"":""con"",""correctResponse"":""c""},{""word"":""KÉK"",""color"":""yellow"",""congruency"":""inc"",""correctResponse"":""m""},{""word"":""PIROS"",""color"":""green"",""congruency"":""inc"",""correctResponse"":""c""},{""word"":""KÉK"",""color"":""blue"",""congruency"":""con"",""correctResponse"":""n""}]"	737336	737336	736213	736213	736230	737354	SÁRGA
